Time(s),Time(ms),AccelX,AccelY,AccelZ,GyroX,GyroY,GyroZ
0.000,696760,2.671929,0.004788,9.789890,1.432447,0.127175,1.608044
0.020,696780,2.822764,0.026336,9.821015,1.327621,-0.111212,1.358483
0.040,696800,5.125986,0.287304,9.083601,0.832756,0.018092,1.141914
0.060,696820,5.892130,0.153229,8.829816,0.923215,0.022349,0.989729
0.080,696840,5.980716,0.304064,8.836999,0.797105,0.064386,0.978023
0.100,696860,6.016629,1.601721,10.261548,0.953014,-0.222423,0.887564
0.120,696880,15.981297,8.415619,13.113043,0.290001,-2.319479,0.086202
0.140,696900,28.613104,10.625467,8.248025,-0.904591,-0.644388,0.021285
0.160,696920,13.285425,7.103596,8.851364,1.900174,0.634810,1.450539
0.180,696940,10.254366,8.291121,18.816031,1.608044,-0.509764,1.624008
0.200,696960,21.715410,12.035652,18.025944,1.352098,-1.207896,0.758793
0.220,696980,18.622101,10.240001,15.162479,0.349066,0.478901,0.752407
0.240,697000,17.753006,9.181764,16.160862,-0.041505,0.374607,1.195657
0.260,697020,18.744205,10.726024,16.400282,0.135689,0.392167,1.030702
0.280,697040,18.978836,10.216059,13.773843,1.084978,-0.126643,0.713031
0.300,697060,17.707516,8.118738,12.354081,0.360772,0.515617,0.910445
0.320,697080,15.337256,6.009446,10.635044,0.676847,0.134092,1.131804
0.340,697100,12.150574,4.493917,9.794679,0.638003,0.079285,1.295162
0.360,697120,8.396465,3.691859,8.820239,0.448039,0.378332,1.323896
0.380,697140,4.886566,2.382231,7.955932,0.919491,0.080349,1.240355
0.400,697160,2.640805,1.544260,8.736442,0.517746,0.828499,1.186611
0.420,697180,2.231396,1.137246,8.662222,0.926408,0.285212,0.966849
0.440,697200,4.448427,1.592144,8.884883,1.064225,0.036716,0.841270
0.460,697220,6.562507,1.539472,8.564059,0.441121,0.707178,0.921087
0.480,697240,6.497863,1.345541,7.515399,0.468259,0.739104,1.094556
0.500,697260,4.292804,2.693477,8.159439,0.724737,0.444314,1.228648
0.520,697280,8.322245,8.501810,13.069947,0.663012,-0.632150,0.852444
0.540,697300,26.566063,13.510480,11.269507,0.642260,-0.642792,0.246900
0.560,697320,18.033127,8.501810,9.435549,1.005161,1.733623,1.205235
0.580,697340,10.809821,8.576031,12.751518,1.407970,-0.376736,1.609640
0.600,697360,18.476055,13.148955,15.492879,1.726173,-1.302612,1.257914
0.620,697380,20.910957,13.393165,12.959814,0.116533,1.197785,1.200978
0.640,697400,17.202339,11.477803,12.126632,0.767838,0.296387,0.972702
0.660,697420,16.342821,11.384429,13.790602,0.751343,-0.028202,0.636939
0.680,697440,15.614984,9.758766,12.411542,0.812536,-0.087266,0.530516
0.700,697460,14.755466,8.449138,10.807426,0.592241,-0.087799,0.768371
0.720,697480,12.320562,6.076484,9.928755,1.211088,-0.346405,1.185015
0.740,697500,9.682152,3.821146,8.990228,1.092427,0.232001,1.565475
0.760,697520,5.612009,1.862689,9.023746,0.844995,0.374607,1.674558
0.780,697540,3.476381,0.177171,8.731653,1.221198,-0.294258,1.542594
0.800,697560,2.602497,-0.339977,9.126697,0.899802,0.102698,1.291437
0.820,697580,3.282450,-0.083797,9.038112,0.809875,-0.207524,0.966849
0.840,697600,5.638345,0.292093,8.813056,0.661416,-0.244240,0.753471
0.860,697620,6.617573,0.567426,8.599973,0.766242,-0.253286,0.767838
0.880,697640,5.918467,1.142034,9.016563,0.783270,-0.345341,0.848720
0.900,697660,10.570400,6.818686,13.407530,0.244240,-1.834724,0.244240
0.920,697680,28.115110,11.848905,11.178528,-0.692278,-2.255093,-0.723141
0.940,697700,14.125790,7.125144,9.423578,0.971638,1.274410,0.681104
0.960,697720,9.785102,7.999028,15.703569,1.450007,-0.333102,1.423401
0.980,697740,22.452824,14.671668,17.688362,1.357951,-1.876761,0.799233
1.000,697760,20.037073,12.495338,16.558298,0.344809,0.328313,0.459745
1.020,697780,15.883134,9.188946,16.270994,0.683765,0.170276,0.983344
1.040,697800,16.567875,10.263943,17.159243,0.603948,0.070239,1.203107
1.060,697820,17.051504,10.474632,13.723564,0.842334,0.084074,0.961527
1.080,697840,15.607800,8.238448,11.753136,0.963656,0.196882,1.027509
1.100,697860,13.606248,5.643134,10.189722,1.388282,-0.060129,1.330814
1.120,697880,10.122684,3.936068,9.006987,0.681104,0.474112,1.595274
1.140,697900,6.811504,2.645593,8.856153,0.973234,0.150056,1.637843
1.160,697920,3.541024,2.059013,8.578424,0.960463,0.097909,1.542062
1.180,697940,3.126827,1.819593,8.695741,0.801362,-0.139946,1.291437
1.200,697960,3.926491,1.733402,8.283937,0.830096,-0.102698,1.065822
1.220,697980,5.346252,1.757344,8.169016,0.869472,-0.139413,1.051454
1.240,698000,5.940014,2.178724,8.188169,0.568296,0.203799,1.285052
1.260,698020,5.298368,3.260903,8.990228,0.324057,0.365029,1.536741
1.280,698040,8.394072,8.540117,12.842498,0.814664,-1.055711,1.204703
1.300,698060,24.258051,11.769896,11.616667,-0.998775,-1.677219,0.598627
1.320,698080,16.259024,8.609550,9.718064,0.721013,0.722609,1.498429
1.340,698100,10.005369,8.657434,11.829751,1.214281,-0.078221,1.783109
1.360,698120,18.820820,12.923901,14.666880,1.908688,-0.957803,1.322300
1.380,698140,23.350649,12.878411,10.383653,1.047730,-0.122386,1.150427
1.400,698160,17.872715,11.075577,9.739613,0.159102,0.305965,1.196721
1.420,698180,16.407465,11.121067,11.317391,0.956738,-0.472516,0.854041
1.440,698200,15.263036,9.145850,10.675745,0.748682,-0.050551,0.728994
1.460,698220,13.862428,7.795521,9.212888,0.751343,-0.252753,0.848720
1.480,698240,12.569559,6.150704,8.769960,1.112115,-0.295855,1.144042
1.500,698260,10.089166,3.708618,8.113950,1.124354,0.070771,1.447878
1.520,698280,6.663064,1.587356,8.604761,1.014739,0.186772,1.599530
1.540,698300,4.592079,0.062249,8.322245,1.530888,0.435800,1.609640
1.560,698320,3.136404,-0.603339,9.272743,1.048262,0.209652,1.386685
1.580,698340,4.225766,-0.090980,8.592790,0.761985,-0.120257,1.128079
1.600,698360,5.882554,0.387861,8.853758,0.844463,-0.209652,0.907252
1.620,698380,6.497863,0.737414,9.270349,0.596498,-0.032991,0.838077
1.640,698400,7.311892,3.351882,10.903194,0.463470,-0.333635,0.568828
1.660,698420,19.445705,10.539276,13.374011,-0.870536,-2.664820,-0.257542
1.680,698440,22.706610,10.067618,9.612720,0.562443,-0.297451,-0.093652
1.700,698460,9.208099,6.071695,11.604695,1.198850,0.197414,1.349970
1.720,698480,12.899959,7.852982,14.753071,1.225987,-1.031234,1.390942
1.740,698500,24.222139,13.259089,15.933413,0.706645,-0.981216,0.519874
1.760,698520,20.920534,10.338163,14.020445,0.275102,0.154845,0.472516
1.780,698540,20.594923,8.956709,13.335704,0.266588,-0.072899,1.170116
1.800,698560,18.997990,9.045294,13.464991,0.437929,0.065982,1.485126
1.820,698580,17.073051,8.705317,12.521675,0.710902,-0.097909,1.218006
1.840,698600,16.208746,6.945579,10.805033,1.019528,-0.171872,1.039748
1.860,698620,14.642938,5.509058,8.999804,0.581599,0.257542,1.166391
1.880,698640,11.190498,4.158728,8.018182,0.896078,0.104294,1.320171
1.900,698660,6.708553,3.404555,7.953538,0.735912,0.108551,1.340392
1.920,698680,4.635174,2.480393,8.063671,0.561379,0.373011,1.267492
1.940,698700,2.959233,2.063802,8.125920,1.511732,0.572553,1.143510
1.960,698720,4.367024,1.786075,8.406042,1.297823,-0.155377,0.970041
1.980,698740,5.635951,1.247379,8.264784,1.079124,0.111744,1.062097
2.000,698760,6.442797,1.338359,8.382100,0.633214,0.377268,1.363272
2.020,698780,5.705383,1.991976,8.216900,0.643856,0.741233,1.604852
2.040,698800,4.264073,4.592079,10.625467,1.040280,0.387378,1.530356
2.060,698820,15.251065,11.140221,14.465767,0.516149,-1.110519,0.814664
2.080,698840,27.418398,11.080365,7.960721,0.184111,0.800829,0.592773
2.100,698860,14.097059,8.374918,7.034164,2.253497,1.105198,1.760761
2.120,698880,12.955026,9.938332,14.125790,1.274942,-0.369818,1.533548
2.140,698900,23.642742,13.417107,14.018051,1.095088,-0.052679,1.229180
2.160,698920,20.784065,11.291056,10.060435,0.620975,0.812536,1.289309
2.180,698940,18.583794,12.392388,10.886436,0.910445,0.014899,0.930133
2.200,698960,16.828844,10.168175,11.176133,1.164262,-0.013835,0.638003
2.220,698980,15.483302,7.881712,9.864111,0.898206,-0.016495,0.686957
2.240,699000,14.427460,6.622362,9.524135,1.038152,-0.166551,0.963656
2.260,699020,11.173739,4.103662,8.470686,1.922523,-0.481562,1.238758
2.280,699040,7.139510,1.517924,8.875306,1.321236,0.438993,1.552705
2.300,699060,3.818752,-0.471658,9.040505,1.018463,0.891821,1.663916
2.320,699080,2.358289,-1.407791,9.296685,0.963656,0.449635,1.446814
2.340,699100,3.366248,-0.526724,9.114726,0.979087,0.030330,1.096684
2.360,699120,5.944803,0.131681,8.726865,0.917362,-0.098441,0.769967
2.380,699140,7.632715,0.727837,8.597578,0.487415,0.179854,0.682168
2.400,699160,7.192182,0.385466,8.259995,0.993454,-0.208056,0.717820
2.420,699180,6.679823,3.363853,10.029311,0.551269,-0.472516,0.620975
2.440,699200,22.677879,12.624625,12.145785,-0.439525,-3.078804,-0.393231
2.460,699220,25.385721,11.808203,9.054871,0.310754,0.348002,-0.014899
2.480,699240,10.259154,6.715736,10.699687,2.389718,1.040812,1.735219
2.500,699260,15.119384,9.174581,15.193604,0.934390,-0.806151,1.529292
2.520,699280,23.927652,12.638990,14.942213,0.408130,0.099505,0.643856
2.540,699300,18.274942,8.863335,13.342886,0.539030,0.550736,0.807215
2.560,699320,17.154455,7.927202,14.446613,0.764114,0.252221,1.044005
2.580,699340,17.808073,9.385271,13.706804,0.630021,0.349598,0.835417
2.600,699360,16.864758,8.736442,12.014104,0.615122,0.631618,0.770499
2.620,699380,14.537593,7.213730,10.307038,1.075932,0.282020,0.940243
2.640,699400,12.011710,5.303157,9.756371,1.760228,-0.138881,1.129675
2.660,699420,9.050082,3.201048,9.215282,1.230244,0.177193,1.263235
2.680,699440,6.229713,1.905785,8.262390,0.605012,0.948757,1.263235
2.700,699460,4.223372,1.206678,8.865729,0.533709,0.785930,1.131271
2.720,699480,3.639187,1.201889,8.621520,0.614058,0.276166,0.951949
2.740,699500,4.067749,1.616086,9.229648,0.468791,0.206460,0.914702
2.760,699520,5.245696,2.032677,8.465898,0.420369,0.427819,1.068482
2.780,699540,5.482722,2.616863,7.625533,0.645985,0.467195,1.333474
2.800,699560,5.963956,6.742072,10.728417,0.841802,-0.043633,1.333474
2.820,699580,21.705833,14.037205,13.005303,0.357580,-1.541530,0.598095
2.840,699600,22.347479,10.771513,9.090784,0.586920,1.051454,0.918958
2.860,699620,10.675745,9.097966,10.000581,1.570264,1.230244,1.843770
2.880,699640,16.661249,12.234370,13.644555,1.566539,-0.940243,1.290905
2.900,699660,22.637177,13.931860,10.996569,0.577342,0.357580,1.123290
2.920,699680,17.743429,12.265495,9.200917,0.875857,-0.157505,1.073803
2.940,699700,15.332468,12.543222,10.285490,0.736444,-0.191028,0.669930
2.960,699720,14.324509,10.065224,10.553641,0.686425,0.118129,0.524663
2.980,699740,14.245501,9.155427,9.385271,0.594902,-0.082477,0.710902
3.000,699760,12.622231,7.170634,9.138668,0.782206,-0.155909,1.117969
3.020,699780,9.758766,3.928885,9.239224,1.192996,-0.151652,1.556429
3.040,699800,5.928043,1.884237,9.035717,1.248336,0.490608,1.750118
3.060,699820,3.782839,0.146046,9.394848,0.911509,0.416644,1.658063
3.080,699840,3.943250,-0.560243,9.449914,0.972170,-0.120790,1.517053
3.100,699860,4.824317,-0.014365,9.186552,0.526259,0.013303,1.330814
3.120,699880,5.748478,0.263362,9.447520,0.669398,-0.071835,1.082849
3.140,699900,5.509058,0.632069,9.399636,0.658755,-0.030863,0.951417
3.160,699920,6.047753,1.508347,9.612720,0.756664,-0.338956,0.884371
3.180,699940,10.874464,7.354988,13.462596,0.278827,-2.718563,0.326717
3.200,699960,32.077515,12.816162,4.920084,-2.222634,-3.085189,-0.618847
3.220,699980,15.993267,9.435549,9.603143,0.433140,-0.260203,1.055179
3.240,700000,11.631032,6.488286,10.577583,1.256318,-0.094184,1.784173
3.260,700020,22.919693,12.073959,15.698781,1.131271,-1.200978,1.086042
3.280,700040,21.732168,9.646238,13.606248,0.823178,0.104826,1.141381
3.300,700060,18.171991,7.230489,14.255077,0.578406,0.292130,1.638375
3.320,700080,16.393099,7.754819,14.889541,0.259671,0.558186,1.466502
3.340,700100,16.809690,8.822633,13.184869,0.399084,0.678444,0.841802
3.360,700120,17.391481,7.553706,10.716447,0.666205,0.636407,0.699728
3.380,700140,15.059528,5.949591,8.334216,1.579842,-0.370350,0.977491
3.400,700160,11.829751,4.829105,8.305486,0.358112,0.818921,1.481934
3.420,700180,8.204929,3.397372,8.372523,0.793912,0.457617,1.511732
3.440,700200,4.446033,2.437297,8.379706,1.037620,0.475177,1.384557
3.460,700220,3.057395,1.980005,8.556877,1.339327,0.073432,1.111583
3.480,700240,4.905719,1.345541,8.427590,1.677751,0.380993,1.046665
3.500,700260,5.185841,1.209072,8.650250,0.825307,0.471452,1.037087
3.520,700280,5.995081,1.563414,7.979874,0.433672,0.569893,1.239290
3.540,700300,5.274426,1.520318,7.620744,0.990794,0.219230,1.403181
3.560,700320,5.058948,4.649539,10.029311,0.862022,0.121854,1.328153
3.580,700340,19.285295,11.643003,13.857639,-0.159634,-1.819825,0.550736
3.600,700360,25.586834,10.024523,7.668628,0.524663,0.698664,0.801894
3.620,700380,11.348516,7.697359,10.493786,0.979619,0.419837,1.743201
3.640,700400,15.330073,10.534488,13.675680,0.906720,-0.353323,1.207363
3.660,700420,25.256433,14.487314,11.451467,1.196721,-0.061193,0.938114
3.680,700440,20.065804,11.896789,9.579201,0.399084,0.703453,1.180226
3.700,700460,17.374722,11.310209,11.789049,1.142978,-0.284680,0.804022
3.720,700480,15.861587,9.270349,10.546458,1.471291,-0.487415,0.600223
3.740,700500,15.509639,7.824251,9.085996,0.358644,0.379928,0.918426
3.760,700520,13.876793,5.971139,8.118738,0.842334,0.046826,1.227584
3.780,700540,10.455479,3.620033,8.542512,0.625232,0.460277,1.540466
3.800,700560,6.888118,1.493982,8.391677,1.121161,0.419837,1.597402
3.820,700580,4.237737,0.100556,8.449138,1.645824,-0.010110,1.487787
3.840,700600,4.232949,-0.474052,7.972692,0.962060,0.436332,1.359015
3.860,700620,3.497929,-0.227449,9.002198,0.649177,0.716224,1.096684
3.880,700640,5.612009,0.038307,8.434772,1.056244,0.010110,0.801894
3.900,700660,6.117185,-0.138864,8.975863,1.144042,0.064918,0.708774
3.920,700680,5.949591,0.220267,8.659827,0.362901,0.502314,0.670462
3.940,700700,9.706094,5.109226,12.016499,0.652370,-1.125950,0.108019
3.960,700720,31.488541,11.884817,7.838616,-1.715531,-1.925715,-0.812004
3.980,700740,19.395428,9.425972,11.049241,0.840738,0.337359,0.503911
4.000,700760,8.973468,7.010222,12.794614,1.603255,0.448039,1.559090
4.020,700780,20.757729,12.066776,19.292477,1.995954,-1.149895,0.959931
4.040,700800,22.910116,11.745954,16.692375,0.572021,0.511360,0.615122
4.060,700820,18.385075,9.114726,16.357185,0.876922,0.258607,1.003032
4.080,700840,18.468872,10.055647,16.881516,0.678976,-0.067046,1.087106
4.100,700860,18.409018,9.569624,13.989321,0.703453,0.094716,0.841802
4.120,700880,16.472107,7.529764,11.214440,0.570957,0.010642,0.965252
4.140,700900,13.814544,5.623980,9.014170,1.530356,-0.309690,1.203639
4.160,700920,9.002198,4.053383,9.533711,0.764114,0.494333,1.449475
4.180,700940,5.614403,3.497929,8.140285,0.441653,0.545415,1.393071
4.200,700960,3.732560,2.446874,8.037335,1.021656,-0.282552,1.231841
4.220,700980,2.918532,1.898602,7.812280,0.703453,-0.002661,1.124354
4.240,701000,3.282450,1.300052,8.374918,0.610333,0.191028,1.100409
4.260,701020,4.086902,1.302446,8.329428,0.494333,0.473048,1.169051
4.280,701040,5.209783,1.470040,8.362947,0.549672,0.454424,1.330281
4.300,701060,5.161899,1.903390,7.927202,0.531580,0.584792,1.471291
4.320,701080,4.546589,5.166687,9.986216,0.718884,0.507103,1.419676
4.340,701100,18.634071,12.567164,13.718776,-0.062257,-0.793380,0.633746
4.360,701120,26.609158,9.988609,9.605537,0.713563,1.362208,0.727398
4.380,701140,12.734758,8.135497,10.421960,2.415259,0.926408,2.149203
4.400,701160,14.243106,10.606314,14.300567,1.063693,-0.392699,1.677219
4.420,701180,23.044191,14.322115,13.725958,1.024317,0.013835,1.106794
4.440,701200,19.357121,12.006922,10.934319,0.921087,0.138349,1.239822
4.460,701220,17.578228,11.968615,11.738770,0.972702,-0.027670,0.892353
4.480,701240,16.697163,10.342952,11.844116,0.814132,0.046826,0.661416
4.500,701260,16.206352,9.215282,9.818622,0.852976,0.007450,0.847655
4.520,701280,14.566323,7.625533,9.406818,1.139253,0.058000,1.193529
4.540,701300,11.468226,4.848258,8.779537,1.680411,-0.167615,1.434043
4.560,701320,7.989451,2.229002,9.160215,1.085510,0.439525,1.616558
4.580,701340,5.046977,0.275333,8.825027,1.182354,0.335231,1.548448
4.600,701360,2.932897,-0.828394,8.456321,0.824242,0.724205,1.390942
4.620,701380,3.466804,-0.521936,8.757990,1.063161,-0.034587,1.060500
4.640,701400,5.923255,-0.090980,8.997410,0.864683,0.009578,0.856701
4.660,701420,7.031770,-0.153229,8.844181,0.723141,0.190496,0.850316
4.680,701440,6.481104,0.165200,8.820239,0.594902,0.143670,0.898738
4.700,701460,7.110779,2.873042,11.183316,0.725269,-0.463470,0.738040
4.720,701480,20.511126,10.802638,13.611036,0.223487,-2.894161,-0.230937
4.740,701500,25.941175,10.922348,9.200917,-0.054808,-0.373543,-0.101101
4.760,701520,11.451467,6.260838,8.401254,2.050230,1.934229,1.672430
4.780,701540,13.611036,9.188946,16.077065,1.390942,-1.429786,1.475016
4.800,701560,25.823860,13.462596,16.472107,1.687861,-1.305272,0.346937
4.820,701580,19.733011,10.091560,14.925453,0.506571,0.496461,0.748150
4.840,701600,18.631678,8.990228,15.375564,0.727930,0.179854,1.187675
4.860,701620,18.780119,9.646238,14.743494,0.818921,-0.005853,1.130739
4.880,701640,17.628508,8.712500,12.073959,0.211249,0.619911,1.118501
4.900,701660,15.184027,6.490681,10.211270,1.064757,0.032991,1.347309
4.920,701680,12.497733,4.539406,10.141838,0.456021,0.693343,1.623476
4.940,701700,8.027759,3.756502,8.384495,0.609269,0.426222,1.492576
4.960,701720,5.868188,2.640805,8.588001,0.742829,0.251157,1.236630
4.980,701740,4.525041,1.592144,8.161834,0.835417,0.122918,1.111051
5.000,701760,4.019865,1.039083,8.123527,0.725802,0.278827,1.199382
5.020,701780,4.134786,1.089362,8.195353,0.692811,0.116001,1.246740
5.040,701800,4.584896,1.414973,8.441956,0.408662,0.342148,1.291969
5.060,701820,5.487510,2.109292,8.243237,0.746554,0.018624,1.311658
5.080,701840,5.784391,2.643199,8.075643,0.649709,0.113872,1.460117
5.100,701860,6.672640,7.366959,12.514492,0.628957,-0.462406,1.324960
5.120,701880,25.311501,12.749125,14.731524,-0.501782,-2.073643,0.416112
5.140,701900,22.433670,8.923190,7.592013,0.583195,0.758793,1.352630
5.160,701920,10.986992,8.101978,9.890448,1.799073,0.511360,2.169955
5.180,701940,16.247053,12.152967,17.056293,2.065129,-1.169584,1.289841
5.200,701960,25.096022,13.826515,11.595119,0.940243,-0.119193,0.842866
5.220,701980,20.259735,10.975020,10.019734,0.399084,0.178258,1.251529
5.240,702000,17.377115,10.443508,10.730812,1.314318,-0.813068,0.997179
5.260,702020,16.168043,8.410830,10.498574,1.452667,-0.629489,0.811472
5.280,702040,15.502456,7.086837,9.356541,0.826371,-0.296919,0.952482
5.300,702060,14.159308,5.741296,8.267179,0.920555,-0.246368,1.200446
5.320,702080,10.474632,2.923320,7.556100,1.312190,0.105358,1.485658
5.340,702100,6.698977,0.519542,8.698134,1.390942,0.179322,1.635182
5.360,702120,4.453215,-0.677559,8.113950,1.100941,-0.264992,1.552705
5.380,702140,3.074155,-1.084573,8.465898,0.702921,-0.188900,1.386685
5.400,702160,4.728549,-0.153229,8.231265,0.728462,-0.386314,1.145106
5.420,702180,6.722919,0.644040,8.303091,0.842334,-0.452828,0.897142
5.440,702200,6.876147,0.758962,8.614338,0.489544,-0.076092,0.752939
5.460,702220,6.732495,1.774103,9.576807,0.394295,-0.059064,0.608737
5.480,702240,13.802573,7.570466,12.907142,-0.555526,-2.490287,-0.077688
5.500,702260,32.472557,13.450625,4.189853,-0.502314,-2.137496,-0.618847
5.520,702280,14.753071,8.310274,9.890448,0.743893,0.455488,0.967381
5.540,702300,11.449073,5.729325,12.227188,1.084445,-0.244240,1.429786
5.560,702320,24.952370,10.728417,13.476961,1.066886,-1.562283,0.832756
5.580,702340,23.037008,9.282320,13.299790,0.573617,0.363965,1.083913
5.600,702360,19.184738,7.034164,12.291832,0.244240,0.724205,1.530356
5.620,702380,17.338808,6.938396,12.507310,0.635342,0.466131,1.306869
5.640,702400,17.544710,6.864176,11.592725,0.962592,0.260203,0.843931
5.660,702420,16.666039,5.863400,9.646238,1.066886,0.144203,0.851380
5.680,702440,13.821727,4.558560,8.508993,1.005161,0.145799,1.257914
5.700,702460,9.921572,3.794810,8.303091,0.833820,0.193689,1.573457
5.720,702480,6.694188,3.040636,8.264784,0.711435,0.296387,1.585696
5.740,702500,4.235343,2.796427,8.324639,0.844995,0.313946,1.386153
5.760,702520,3.818752,2.434903,8.197746,1.037087,0.419305,1.202574
5.780,702540,4.551377,2.018312,8.358158,0.751343,0.060129,1.055179
5.800,702560,5.305551,1.831564,8.173804,0.711435,0.189432,1.146703
5.820,702580,5.714960,2.367866,8.032547,0.751875,0.174001,1.357419
5.840,702600,5.537788,3.825934,8.784326,0.806151,0.170276,1.528759
5.860,702620,12.684481,8.683769,12.969391,0.326185,-0.957271,1.056244
5.880,702640,31.529242,11.801021,5.193024,0.849784,-0.755068,0.702921
5.900,702660,15.454572,8.183381,9.042900,0.838609,0.973766,1.875697
5.920,702680,9.442732,7.058106,11.980585,1.008353,0.023413,1.410098
5.940,702700,23.147142,12.447454,12.344504,1.311658,-0.919491,0.624168
5.960,702720,24.703373,12.476185,8.995016,0.204331,0.990794,0.834885
5.980,702740,18.531120,10.958261,8.444349,0.867876,-0.232001,0.857765
6.000,702760,16.749836,9.986216,8.959103,0.849784,0.016495,0.700260
6.020,702780,15.416265,7.766790,8.396465,1.039216,-0.060661,0.851380
6.040,702800,13.984532,6.138733,7.915231,0.846059,-0.128771,1.078592
6.060,702820,12.471396,4.242526,7.266402,0.945564,-0.051615,1.362740
6.080,702840,9.718064,2.128445,7.556100,1.066354,0.019688,1.552705
6.100,702860,6.495469,0.409408,7.927202,1.467566,-0.191561,1.522906
6.120,702880,4.101267,-0.940921,8.599973,1.373915,-0.032459,1.414887
6.140,702900,3.490746,-1.182736,8.911219,0.933858,0.310754,1.205235
6.160,702920,5.307945,-0.347159,8.765172,0.912573,-0.046826,0.967913
6.180,702940,8.135497,0.181959,8.418014,0.755600,-0.144735,0.866279
6.200,702960,8.458714,0.395043,8.578424,0.689618,-0.180386,0.806151
6.220,702980,8.908825,2.887407,9.749189,0.470920,-0.733251,0.514021
6.240,703000,26.446352,10.931925,7.764396,-0.068110,-2.732930,-0.255414
6.260,703020,24.703373,11.712435,9.083601,0.565104,-0.121322,0.513489
6.280,703040,8.930372,5.173870,9.227253,1.208960,0.884371,1.766082
6.300,703060,12.990938,6.428432,12.050017,1.054115,-0.667269,1.413823
6.320,703080,28.771122,11.496957,11.314998,1.050922,-1.042409,0.403873
6.340,703100,23.704990,8.008605,10.156203,0.355983,0.832756,0.909913
6.360,703120,21.133619,6.507440,10.642226,0.722077,0.214441,1.506411
6.380,703140,20.087353,7.132327,11.446678,0.734315,0.030863,1.332410
6.400,703160,17.532740,6.004658,10.824186,0.741233,0.075028,1.042941
6.420,703180,15.658079,4.333505,9.059659,0.646517,0.051615,1.134464
6.440,703200,12.713211,3.811569,7.795521,0.759325,-0.341084,1.370190
6.460,703220,8.566454,3.224990,7.848193,0.589581,-0.276699,1.506943
6.480,703240,5.207389,2.750938,8.051701,0.564571,-0.088331,1.409566
6.500,703260,3.074155,2.106898,8.427590,0.660884,-0.075560,1.225987
6.520,703280,3.409343,1.733402,8.463503,0.498057,0.042569,1.152024
6.540,703300,5.099649,1.812411,7.910442,0.793380,0.125579,1.224391
6.560,703320,6.543353,1.948880,8.109161,0.692278,0.117065,1.418080
6.580,703340,6.660669,2.545036,8.303091,0.798169,0.065982,1.613897
6.600,703360,7.975086,5.190629,9.179369,0.366093,0.331506,1.388282
6.620,703380,25.922022,10.453085,9.497798,0.606608,-0.839674,0.867876
6.640,703400,25.692179,9.296685,8.540117,1.041344,0.865747,1.507475
6.660,703420,10.405201,6.196194,8.207323,1.022720,0.264992,1.800669
6.680,703440,15.643714,7.625533,9.459491,1.173840,-0.959399,1.133400
6.700,703460,26.386497,13.227964,10.417171,1.311126,-0.150056,0.867343
6.720,703480,20.053833,9.883265,7.915231,0.835417,0.330974,0.850848
6.740,703500,18.274942,9.562442,8.700529,0.839674,-0.052147,0.664077
6.760,703520,17.211916,8.609550,8.259995,1.166391,-0.220295,0.678976
6.780,703540,15.808914,7.031770,7.807492,0.748150,0.291066,1.088170
6.800,703560,14.484921,5.410896,7.199365,1.120097,0.022349,1.392007
6.820,703580,11.427525,3.260903,7.240066,1.291969,0.310754,1.668173
6.840,703600,7.505822,1.230620,7.941567,1.236098,0.730058,1.790027
6.860,703620,4.697424,-0.007183,8.020576,1.442025,0.181983,1.654870
6.880,703640,3.634398,-0.452504,7.661446,1.593145,0.142074,1.463310
6.900,703660,2.676718,-0.095768,9.662998,1.779917,0.386846,1.263767
6.920,703680,6.220136,1.041478,8.437167,0.922683,0.129835,1.059968
6.940,703700,7.661446,1.096544,8.374918,1.026977,0.114404,0.949289
6.960,703720,6.880936,1.058237,8.327033,0.838609,0.196882,0.904059
6.980,703740,9.131485,3.624821,8.204929,0.535837,-0.597562,0.429415
7.000,703760,33.947388,11.077971,8.508993,-0.560847,-2.794655,-0.283084
7.020,703780,22.608446,8.985439,8.793902,1.891660,0.470388,1.086042
7.040,703800,8.240842,4.120421,9.318233,1.264832,0.458149,2.116744
7.060,703820,17.951725,6.253655,12.880805,0.700260,-0.638003,1.417016
7.080,703840,28.723238,9.485827,12.801797,0.577342,0.378864,0.373543
7.100,703860,23.139959,6.641516,10.587160,0.451231,0.836481,0.789655
7.120,703880,21.545422,5.920861,12.069171,0.658755,0.429947,1.066886
7.140,703900,21.023485,6.931214,12.155362,0.438993,0.302772,0.968977
7.160,703920,18.751389,5.628768,9.830592,1.290905,-0.556058,0.948757
7.180,703940,15.562311,4.965574,8.293514,-0.105890,0.856169,1.364869
7.200,703960,12.303802,4.048595,7.948750,0.968445,-0.401213,1.340924
7.220,703980,9.153033,3.224990,7.754819,0.607140,0.054275,1.261639
7.240,704000,5.592855,2.288857,7.405266,0.636939,0.344809,1.029638
7.260,704020,4.072537,1.522712,7.328651,0.648645,0.110679,0.863087
7.280,704040,3.495534,1.237802,7.769185,0.574682,0.335231,0.892353
7.300,704060,3.562572,1.338359,8.664616,0.287873,0.921619,0.972170
7.320,704080,4.680665,1.584962,8.513782,0.692278,0.703453,0.981216
7.340,704100,5.367800,1.448492,8.547300,0.986537,0.851380,0.956738
7.360,704120,4.316746,1.795651,8.401254,0.879050,1.224923,0.888628
7.380,704140,10.058042,6.660669,11.319786,0.740701,0.369818,0.402277
7.400,704160,37.155617,14.097059,9.112331,0.564039,-0.786462,-0.027138
7.420,704180,20.989965,8.121132,9.825804,1.558026,2.366305,1.693714
7.440,704200,11.908759,5.087678,10.532093,1.405309,-0.238919,1.909220
7.460,704220,26.216509,13.668497,11.939884,0.736444,-1.886871,0.883307
7.480,704240,26.534937,14.039598,10.134656,0.650774,1.208960,0.827435
7.500,704260,18.693928,9.540894,9.418790,0.599691,0.787527,0.854573
7.520,704280,17.195156,8.757990,10.096349,1.183950,-0.113872,0.719948
7.540,704300,16.299725,8.075643,9.962274,1.530356,-0.095780,0.905123
7.560,704320,13.948619,6.452374,8.034941,0.442186,0.889160,1.142978
7.580,704340,11.161768,3.895366,7.797915,1.158941,0.441121,1.407970
7.600,704360,6.856994,1.812411,8.432379,0.710370,1.137657,1.704357
7.620,704380,4.551377,0.268151,8.281544,2.003936,-0.144735,1.645824
7.640,704400,2.925714,-0.136469,8.070854,1.531420,-0.133028,1.460117
7.660,704420,3.794810,0.229843,8.461109,1.252593,-0.114404,1.033363
7.680,704440,6.392519,0.505177,8.329428,0.819453,0.264460,0.713031
7.700,704460,6.299145,-0.081403,8.307879,1.067950,0.187836,0.676315
7.720,704480,5.825093,-0.105345,8.188169,0.912041,0.182515,0.739636
7.740,704500,4.999093,0.318429,8.971074,1.117436,-0.051083,0.779013
7.760,704520,11.817780,5.384560,12.021287,0.307561,-1.701696,0.024477
7.780,704540,38.525101,13.390770,7.627927,-0.506039,-2.127918,-0.776884
7.800,704560,16.297331,6.845023,8.571242,1.794816,2.115680,1.330814
7.820,704580,10.345345,3.952827,11.947066,1.042409,-0.307561,1.450539
7.840,704600,24.748863,11.051635,15.344439,1.054647,-2.123129,0.378332
7.860,704620,23.997084,12.215217,15.205575,-0.061725,0.528388,0.183579
7.880,704640,19.589357,8.085219,13.632585,-0.210184,0.733251,0.822114
7.900,704660,22.316355,10.101137,13.484144,0.686957,-0.641728,0.839674
7.920,704680,20.020315,8.746018,12.471396,0.155377,0.178790,0.997711
7.940,704700,16.194380,5.849035,10.070012,0.301176,0.141542,1.262703
7.960,704720,13.948619,4.357447,8.997410,0.212313,0.285212,1.534613
7.980,704740,10.307038,3.134010,7.457938,0.707178,-0.424094,1.509071
8.000,704760,7.857770,1.884237,7.290344,0.933858,-0.563507,1.458521
8.020,704780,4.979939,0.883460,6.952762,0.434204,0.284148,1.456924
8.040,704800,3.251326,0.514753,6.866570,1.307401,-0.417708,1.373383
8.060,704820,3.011906,0.636858,7.465121,0.219763,0.465066,1.281859
8.080,704840,4.443638,0.632069,8.339005,0.994518,-0.151652,1.033363
8.100,704860,5.590461,1.209072,8.245630,-0.386314,1.037620,1.042941
8.120,704880,5.224148,2.190695,8.238448,0.461874,0.668866,1.033363
8.140,704900,9.797073,7.400477,12.045229,0.280955,-0.285744,0.657159
8.160,704920,32.302570,12.890382,10.026917,-0.670462,-0.894481,0.302240
8.180,704940,18.203115,8.137892,9.710882,1.256318,1.258978,1.620283
8.200,704960,11.331757,7.410054,12.732365,1.663916,-0.017028,1.696907
8.220,704980,21.538239,13.551182,14.899117,0.527324,-0.502314,1.177565
8.240,705000,23.920469,12.603078,12.646173,0.092588,1.046133,1.137657
8.260,705020,19.634848,10.896012,10.055647,0.564039,0.342681,1.183418
8.280,705040,17.269377,10.493786,11.568783,0.986005,0.039376,0.935454
8.300,705060,15.634137,8.441956,10.223241,0.785398,0.188368,0.896610
8.320,705080,14.630966,6.485892,9.138668,1.692118,-0.435800,1.026445
8.340,705100,11.367670,3.878607,8.973468,1.074335,0.441121,1.473952
8.360,705120,7.501034,1.941698,7.929596,1.838449,0.085138,1.688925
8.380,705140,4.797980,0.052672,8.204929,1.237694,0.154845,1.786302
8.400,705160,2.873042,-0.493206,7.876924,1.004097,0.205928,1.674026
8.420,705180,4.175488,-0.205901,8.204929,1.369658,-0.292662,1.320171
8.440,705200,6.545747,0.045490,8.207323,1.031766,-0.051615,1.019528
8.460,705220,6.569689,-0.497994,8.171411,1.314850,-0.102166,0.812004
8.480,705240,5.973533,-0.684742,8.566454,0.710902,0.227212,0.741765
8.500,705260,6.461950,2.130840,10.084377,0.871068,-0.367690,0.412919
8.520,705280,23.455994,10.596737,14.154520,-0.580003,-3.245887,-0.725269
8.540,705300,29.874849,11.772290,9.940725,0.160166,0.106955,0.020752
8.560,705320,13.321339,4.697424,7.795521,1.927312,1.609108,1.814504
8.580,705340,16.139313,6.617573,14.635755,0.983876,-1.128079,1.346777
8.600,705360,28.342560,11.820174,15.382746,0.215506,-0.752939,0.688022
8.620,705380,20.381840,8.319851,14.496891,0.819986,-0.087799,0.943968
8.640,705400,17.207129,6.215348,14.290990,0.083542,0.456021,1.167987
8.660,705420,18.104954,7.603985,12.883200,0.560847,-0.206460,0.817857
8.680,705440,17.796101,7.278373,10.809821,-0.290001,0.960995,0.856701
8.700,705460,14.671668,4.924873,9.186552,1.044537,-0.014367,1.062097
8.720,705480,11.118672,3.859453,8.475474,0.195817,0.529452,1.356887
8.740,705500,8.061277,3.078943,8.329428,0.715691,-0.078753,1.336667
8.760,705520,4.912902,2.710236,8.133103,0.723141,-0.244240,1.197253
8.780,705540,3.359065,2.049437,7.843405,0.360240,0.162294,1.067950
8.800,705560,2.877831,1.359907,8.078036,0.793380,-0.189432,0.922151
8.820,705580,3.670311,1.403002,8.044518,0.391103,0.165487,0.901399
8.840,705600,5.336676,1.757344,7.793127,0.137817,0.390039,1.001436
8.860,705620,5.940014,1.908179,7.536947,0.330442,0.348002,1.151492
8.880,705640,4.309563,4.266468,9.526528,0.487947,0.286809,1.187143
8.900,705660,18.109741,10.654198,13.994109,-0.957271,-1.722980,0.627361
8.920,705680,31.421503,11.772290,8.492233,0.818921,0.224019,0.771563
8.940,705700,11.908759,6.375759,9.062054,0.786462,1.579310,1.876761
8.960,705720,14.441825,8.183381,12.782643,1.327621,-0.159102,1.428722
8.980,705740,29.125463,15.574282,13.232753,1.548980,-1.345181,0.744958
9.000,705760,24.095245,11.674128,10.326192,0.870536,0.299579,1.021124
9.020,705780,18.746599,10.309433,9.588778,0.854041,-0.276166,0.877986
9.040,705800,17.357962,9.605537,10.067618,1.191932,-0.547544,0.634278
9.060,705820,16.505627,8.068460,9.251195,0.699728,-0.034587,0.880114
9.080,705840,14.559140,6.153099,7.922413,0.834352,-0.075560,1.107858
9.100,705860,10.986992,3.557784,7.872135,1.125950,0.201139,1.393071
9.120,705880,7.352593,1.098939,7.920019,1.439365,0.153781,1.594209
9.140,705900,4.503493,-0.799663,7.752425,1.442025,0.318735,1.713403
9.160,705920,2.604892,-1.563414,7.922413,1.392007,0.068110,1.624008
9.180,705940,4.292804,-0.622492,8.066066,1.087106,-0.155377,1.333474
9.200,705960,6.442797,-0.232238,8.101978,0.955142,-0.054808,1.024317
9.220,705980,6.950367,-0.457293,8.049306,0.919491,0.135689,0.792316
9.240,706000,6.897695,-0.857124,8.259995,0.887564,0.048422,0.702389
9.260,706020,6.399701,0.148441,9.490616,0.858830,-0.222955,0.716756
9.280,706040,15.026010,5.669470,12.287044,-0.066514,-2.454635,0.084074
9.300,706060,36.475662,15.629349,7.637504,0.324057,-2.383864,-0.437397
9.320,706080,15.693993,8.540117,11.650186,1.138721,0.858830,1.235033
9.340,706100,12.567164,4.946421,12.413936,1.091895,0.166551,1.579842
9.360,706120,28.419174,12.026075,13.735536,0.694939,-1.682540,0.800829
9.380,706140,24.511837,10.407595,13.675680,0.003193,0.922151,1.111051
9.400,706160,18.813637,6.308722,13.242330,0.476773,-0.002128,1.620283
9.420,706180,19.172768,8.101978,13.024457,0.785398,-0.925876,1.170648
9.440,706200,19.184738,8.554482,11.482592,0.756664,-0.235194,0.918958
9.460,706220,16.438589,5.758055,8.628703,0.268717,0.399617,1.187143
9.480,706240,12.478580,3.869030,7.905654,0.728462,-0.086202,1.467034
9.500,706260,8.245630,2.686294,7.206547,1.798008,-1.256850,1.450539
9.520,706280,5.702989,2.080561,7.857770,-0.406534,0.826903,1.568668
9.540,706300,2.995146,1.034295,7.524976,0.781141,0.197414,1.297290
9.560,706320,2.779668,0.464475,7.656657,0.807747,0.277763,1.197253
9.580,706340,4.453215,-0.083797,6.998251,1.070611,0.266056,1.185547
9.600,706360,5.432444,0.023942,6.971915,0.415580,0.390571,1.286648
9.620,706380,5.540183,0.569820,7.268796,0.125046,0.707178,1.412759
9.640,706400,4.381389,1.716643,7.419631,0.730591,0.573617,1.245676
9.660,706420,7.788338,5.506664,9.938332,0.711967,-0.003193,0.606608
9.680,706440,33.796551,13.819332,9.272743,-0.355451,-2.001807,0.086202
9.700,706460,23.479937,9.100361,9.478644,0.703453,2.408342,1.422337
9.720,706480,11.468226,6.600814,9.251195,2.310433,1.854944,2.100780
9.740,706500,21.909340,12.689269,14.255077,0.695471,-1.109987,1.162134
9.760,706520,27.600357,13.603854,11.130644,1.479273,0.409195,0.759857
9.780,706540,21.073763,9.088389,10.014946,0.657159,0.746022,1.005693
9.800,706560,18.569427,8.786720,11.231200,0.572021,0.109615,0.644920
9.820,706580,17.887081,7.963115,10.618284,0.456021,-0.549140,0.681104
9.840,706600,16.560694,6.698977,8.712500,1.280263,0.291598,0.964188
9.860,706620,11.607090,4.529830,7.941567,1.487255,0.165487,1.292501
9.880,706640,9.258378,2.659958,7.888895,0.710902,1.420741,1.586228
9.900,706660,4.671088,0.430956,8.269572,1.759164,0.201671,1.464374
9.920,706680,3.497929,-0.500388,7.422025,2.111955,0.082477,1.322832
9.940,706700,2.473210,-0.735020,8.051701,1.233437,0.371947,1.144042
9.960,706720,5.542577,-0.569820,9.270349,1.287180,-0.195285,0.799233
9.980,706740,7.163452,-0.339977,8.690952,1.008353,0.137817,0.724205
10.000,706760,7.237672,-0.191536,8.664616,0.997179,-0.037248,0.626829
10.020,706780,6.181829,-0.253785,8.317456,0.767306,0.075560,0.583195
10.040,706800,7.180211,3.368642,10.488997,0.965784,-1.053583,0.051083
10.060,706820,30.190884,11.820174,12.512098,-1.290905,-3.681155,-0.953014
10.080,706840,23.609222,11.722012,10.414778,0.310754,1.279731,0.373543
10.100,706860,9.349358,5.777209,12.591106,2.650453,1.186611,1.788430
10.120,706880,20.870256,9.119514,14.908694,1.512264,-2.266800,1.149363
10.140,706900,28.155811,12.253524,13.888764,1.106262,-0.083542,0.641728
10.160,706920,19.486408,7.723695,13.148955,0.209120,0.785930,1.279731
10.180,706940,18.602947,7.323863,14.346057,0.191561,0.264992,1.184483
10.200,706960,19.740192,8.420407,11.999739,0.755068,-0.407066,0.766242
10.220,706980,16.910246,6.490681,10.323798,0.361837,0.490076,1.050390
10.240,707000,13.778631,4.888960,9.160215,0.577342,0.311818,1.349438
10.260,707020,10.982203,3.086126,10.029311,0.852444,0.061193,1.608044
10.280,707040,7.354988,3.107674,7.271191,0.531048,0.479966,1.631457
10.300,707060,5.003881,1.774103,7.362170,1.139785,-0.499122,1.529292
10.320,707080,4.050989,1.230620,7.577648,0.558718,-0.009046,1.505346
10.340,707100,3.799598,0.955287,7.845799,0.648645,-0.093120,1.378704
10.360,707120,3.969586,1.094150,7.874529,0.602351,0.021817,1.209492
10.380,707140,4.862624,1.752556,7.390901,0.089927,0.627893,1.193529
10.400,707160,5.118803,2.509123,7.180211,0.421433,0.694939,1.246740
10.420,707180,4.146757,5.219360,9.033323,0.971638,0.643324,1.257382
10.440,707200,18.373104,11.741165,14.140155,0.191028,-1.745861,0.630021
10.460,707220,33.114204,11.116279,6.744466,0.900334,0.581067,0.786995
10.480,707240,12.349293,6.478710,6.959944,1.486190,1.912945,1.925183
10.500,707260,14.109031,8.722076,13.297397,1.704357,0.102698,1.432979
10.520,707280,31.996111,15.610195,12.370840,0.037248,0.241579,0.685893
10.540,707300,22.644360,10.146626,9.794679,0.796573,0.560315,0.917362
10.560,707320,18.782513,9.030929,10.283096,1.106262,-0.818389,0.777949
10.580,707340,16.953342,9.095572,11.722012,1.301547,-0.327781,0.499122
10.600,707360,17.065870,7.757214,8.662222,1.107858,-0.111212,0.659820
10.620,707380,14.484921,5.286397,7.577648,1.919330,-0.597562,0.746554
10.640,707400,11.329363,2.748544,8.564059,0.664609,1.142446,1.399456
10.660,707420,6.519411,1.130063,8.140285,1.378704,0.407066,1.554833
10.680,707440,2.861071,0.191536,8.214506,0.780077,0.318735,1.497897
10.700,707460,2.181118,0.011971,8.178593,1.044005,-0.046294,1.271749
10.720,707480,4.635174,0.744597,8.166622,1.067950,-0.219763,0.907784
10.740,707500,7.551312,0.727837,8.568848,1.248336,-0.141010,0.740701
10.760,707520,7.015011,-0.186748,8.588001,1.285052,0.104826,0.651306
10.780,707540,5.647922,-0.682347,9.045294,1.320171,0.171340,0.647581
10.800,707560,4.793192,0.265756,9.957485,0.390039,0.533177,0.559250
10.820,707580,13.656527,6.370971,13.062764,0.035119,-1.680944,-0.276166
10.840,707600,36.964081,13.038822,4.067749,-0.643324,-1.785770,-0.694407
10.860,707620,14.532804,6.323087,9.512163,0.534773,1.414355,0.863619
10.880,707640,10.737994,4.501099,11.291056,1.224923,-0.153248,0.794444
10.900,707660,26.558880,11.389217,14.008474,0.633214,-1.571328,0.045230
10.920,707680,23.621195,11.314998,13.912706,1.021656,0.478369,0.476773
10.940,707700,18.073828,8.142680,13.766660,1.950725,0.207524,0.908316
10.960,707720,18.318037,10.905589,13.646950,0.012239,0.944500,0.715159
10.980,707740,17.187975,10.749966,12.574347,-0.374607,1.442025,0.446442
11.000,707760,15.231912,6.732495,10.587160,0.492204,0.934922,0.655031
11.020,707780,13.383588,5.190629,8.777143,0.666205,0.352791,0.988665
11.040,707800,11.520899,4.876989,4.972757,4.372901,-2.447718,1.000904
11.060,707820,6.191406,4.297592,10.208876,-2.655774,2.221038,1.412227
11.080,707840,3.799598,3.143587,9.399636,-0.349066,1.436704,1.116372
11.100,707860,4.089296,1.482011,9.588778,1.063693,0.846591,1.123822
11.120,707880,5.702989,1.391031,8.690952,0.406534,0.865747,1.333474
11.140,707900,6.500257,1.501164,8.063671,0.316607,0.642792,1.489383
11.160,707920,6.196194,1.678335,7.888895,0.506039,0.503911,1.647953
11.180,707940,5.456386,2.039860,7.953538,0.925876,0.426222,1.806522
11.200,707960,3.964798,5.080496,10.254366,1.368594,0.387910,1.828339
11.220,707980,18.581400,10.793061,14.614207,0.266056,-1.166391,1.306336
11.240,708000,26.130318,8.075643,8.010999,0.876389,0.871068,1.513328
11.260,708020,11.401189,6.979098,9.361329,0.835417,1.079656,2.368965
11.280,708040,12.270284,10.479421,13.010092,2.374286,0.086734,1.870908
11.300,708060,21.198261,13.541605,15.883134,2.292341,-1.623476,1.110519
11.320,708080,22.122423,10.857705,11.353305,0.823710,0.592773,1.307933
11.340,708100,20.403387,11.305421,11.362882,0.064386,0.553929,1.200446
11.360,708120,18.899828,10.393229,12.526464,1.471291,-0.052679,0.970041
11.380,708140,17.970879,9.066842,11.889606,0.714627,0.432075,0.805618
11.400,708160,16.469713,8.001422,10.316615,1.194061,-0.152184,0.842866
11.420,708180,13.053187,6.287174,9.315839,0.956206,0.592241,1.112647
11.440,708200,9.792285,3.361459,9.299079,1.245144,0.353855,1.276006
11.460,708220,6.035782,0.670376,9.038112,1.442557,0.431543,1.353694
11.480,708240,2.583344,-0.878672,8.968679,1.146170,0.660352,1.343584
11.500,708260,2.911349,0.057461,9.346964,1.014207,-0.155377,1.211088
11.520,708280,6.818686,0.988805,8.798691,0.674187,-0.189964,1.036555
11.540,708300,8.121132,0.928950,8.499416,0.778481,-0.221359,0.935454
11.560,708320,6.445191,0.227449,8.580819,0.983344,-0.334699,0.848720
11.580,708340,5.276821,0.354342,8.916007,0.854573,-0.438461,0.870536
11.600,708360,5.813122,2.652776,11.190498,0.857233,-0.835949,0.799233
11.620,708380,18.691532,9.684546,14.836868,0.050019,-3.104345,-0.043633
11.640,708400,28.012159,10.627861,9.533711,-0.503379,-0.580003,0.081413
11.660,708420,13.699622,7.486669,9.490616,2.331717,0.547012,1.801201
11.680,708440,12.380417,7.232883,15.720328,1.061032,-1.053583,1.504814
11.700,708460,24.564510,10.929531,17.161638,1.300483,-1.925715,0.336295
11.720,708480,21.456835,10.256760,15.284584,-0.391103,0.492204,0.746022
11.740,708500,18.760965,9.270349,13.840880,0.581067,-0.282020,1.177565
11.760,708520,19.275719,10.874464,13.828909,-0.027670,0.369818,1.125950
11.780,708540,18.148048,9.330204,10.936713,0.864683,-0.004257,0.986005
11.800,708560,14.640543,6.421249,9.583989,0.398552,0.288937,1.343584
11.820,708580,12.085930,4.721366,9.782708,0.883307,-0.500186,1.512796
11.840,708600,8.444349,3.900155,7.819463,-0.722077,1.282923,1.646356
11.860,708620,4.848258,2.360683,8.152257,0.311818,0.774224,1.509071
11.880,708640,2.475605,1.714248,7.790732,1.391474,-0.290533,1.233969
11.900,708660,3.181894,1.412579,7.730877,1.043473,-0.276699,1.144042
11.920,708680,3.885789,1.247379,8.657434,0.290001,0.373543,1.034959
11.940,708700,4.589684,1.592144,9.289502,0.615654,0.288937,1.086042
11.960,708720,5.243302,2.037466,8.501810,0.009046,0.850848,1.180226
11.980,708740,5.269638,2.037466,8.492233,0.633214,0.571489,1.216409
12.000,708760,4.199430,4.185065,9.454702,1.709146,-0.220827,1.266960
12.020,708780,13.742718,12.188881,14.482526,0.646517,-1.390410,1.008353
12.040,708800,34.186806,13.134590,8.559271,-0.057468,-0.038844,0.615654
12.060,708820,16.733076,7.560889,7.970297,1.765018,1.634650,1.966688
12.080,708840,11.434708,8.394072,14.609419,2.006064,-1.125418,1.432979
12.100,708860,25.194185,16.292543,14.947001,0.366626,-0.680040,0.763582
12.120,708880,21.344309,12.425907,11.338940,0.551801,0.684297,1.015271
12.140,708900,17.025167,11.281479,11.403583,0.819453,0.012239,1.026977
12.160,708920,18.820820,10.907983,12.318168,0.802426,0.048954,0.842866
12.180,708940,17.606958,8.264784,10.242394,1.465970,-0.721545,0.813600
12.200,708960,16.201563,6.224925,8.475474,1.086042,0.040973,1.244079
12.220,708980,11.911154,3.732560,9.145850,0.799233,0.238386,1.548980
12.240,709000,7.383718,0.955287,9.200917,1.209492,-0.156441,1.682540
12.260,709020,4.448427,-0.794875,8.710106,1.836321,-0.466663,1.608576
12.280,709040,2.700660,-1.582567,9.423578,0.881711,0.312882,1.501622
12.300,709060,3.260903,-0.639252,9.066842,0.735912,-0.130368,1.302080
12.320,709080,6.718130,0.562637,8.674192,0.656095,-0.373011,1.063161
12.340,709100,8.149862,0.790087,7.884106,0.747618,-0.521470,0.860426
12.360,709120,7.517793,0.349553,8.061277,0.383653,-0.106955,0.895545
12.380,709140,6.019023,-0.045490,8.568848,0.615122,-0.398552,0.956206
12.400,709160,6.311116,2.681506,10.912771,1.231309,-1.434043,0.717288
12.420,709180,24.049757,10.457873,13.876793,-2.077368,-4.129194,-0.352791
12.440,709200,27.334600,11.880029,8.899248,-0.138349,-0.295322,0.115468
12.460,709220,12.763490,6.394913,9.904813,1.074335,0.099505,1.467034
12.480,709240,17.094601,6.806715,13.285425,0.876389,-1.066886,1.148299
12.500,709260,27.913998,11.726800,13.407530,0.579471,-0.929601,0.736976
12.520,709280,21.061792,8.475474,12.423512,0.313946,0.318203,1.290373
12.540,709300,18.521544,7.050924,12.607866,0.376204,0.205395,1.409566
12.560,709320,19.905394,8.087613,12.239159,0.482094,0.196350,1.028574
12.580,709340,18.377892,6.722919,10.560823,0.785398,0.357048,1.032830
12.600,709360,14.662091,4.625597,9.430760,0.797637,0.365561,1.347841
12.620,709380,11.707646,3.643975,8.805874,0.963656,0.052147,1.470759
12.640,709400,8.932767,3.349488,8.032547,0.580535,0.472516,1.442025
12.660,709420,6.191406,2.585738,7.934384,0.456021,0.633214,1.334538
12.680,709440,3.610456,1.910573,7.714118,0.821582,0.483158,1.213749
12.700,709460,2.614468,1.731008,7.721301,0.796573,0.356515,1.136593
12.720,709480,4.110844,1.647211,8.063671,0.812004,0.259139,1.064225
12.740,709500,5.465962,2.013524,8.075643,0.761453,0.271377,1.079124
12.760,709520,6.186617,2.384625,7.934384,0.521470,0.566700,1.186611
12.780,709540,5.949591,2.489970,8.518570,0.705581,0.482626,1.224923
12.800,709560,10.773908,5.813122,10.986992,0.512957,-0.220295,0.822114
12.820,709580,32.316933,11.123461,8.561666,1.346777,-1.357951,0.646517
12.840,709600,19.002779,7.467515,9.308656,0.672590,1.202574,1.686265
12.860,709620,10.168175,6.404490,10.386047,0.810940,-0.083010,1.410630
12.880,709640,21.329943,10.934319,13.144167,0.998775,-0.893417,0.611397
12.900,709660,27.056873,12.488156,10.807426,0.899802,0.702921,0.700260
12.920,709680,19.658791,9.428367,9.445126,1.236630,-0.141542,0.713563
12.940,709700,17.559074,9.325416,10.299856,1.111583,-0.453892,0.594370
12.960,709720,17.738640,8.592790,10.038888,0.212845,0.504975,0.778481
12.980,709740,16.129736,6.658275,8.633492,0.410259,0.261799,0.873729
13.000,709760,13.893553,4.807557,7.874529,0.946628,-0.309690,1.114244
13.020,709780,10.584765,2.774880,8.197746,1.161070,-0.273506,1.387750
13.040,709800,7.086837,1.065420,8.343793,1.218538,0.138881,1.553769
13.060,709820,3.466804,-0.531513,8.425196,1.253657,0.567232,1.595274
13.080,709840,1.527501,-1.173159,8.939949,1.237694,0.333102,1.434043
13.100,709860,3.505111,-0.471658,9.742006,1.699036,-0.007982,1.194593
13.120,709880,7.105990,0.246603,8.724471,1.172244,-0.327249,0.926940
13.140,709900,8.166622,0.426168,8.580819,0.834885,-0.014899,0.818389
13.160,709920,8.068460,1.805228,9.557653,0.616186,-0.216570,0.582663
13.180,709940,21.226992,8.473080,11.678916,-1.084978,-2.839353,-0.309157
13.200,709960,27.406427,12.253524,9.320627,0.479433,-0.552333,0.004789
13.220,709980,11.666945,5.001487,7.024588,2.238598,1.641567,1.511200
13.240,710000,11.312603,5.358223,14.013263,0.787527,-0.394828,1.358483
13.260,710020,26.985048,11.755530,14.963760,0.617783,-1.999147,0.283084
13.280,710040,22.244528,9.674969,13.476961,-0.295322,1.337731,0.499654
13.300,710060,21.159954,7.632715,12.258312,0.288405,0.438461,1.116904
13.320,710080,20.745758,8.341399,12.780249,1.075932,-0.456021,1.258978
13.340,710100,18.686745,7.850587,11.391612,1.009418,0.068110,1.229180
13.360,710120,16.115372,5.442020,9.830592,0.818921,0.534773,1.391474
13.380,710140,12.636597,3.823540,8.698134,0.918426,0.189964,1.568668
13.400,710160,9.334992,2.784456,8.113950,0.736976,0.087266,1.644760
13.420,710180,6.045359,2.025495,7.850587,0.744425,-0.041505,1.466502
13.440,710200,3.579332,1.221043,7.876924,0.647049,0.587984,1.331878
13.460,710220,2.944868,0.699107,7.831434,0.410791,0.621507,1.186079
13.480,710240,4.278439,0.900220,8.010999,0.401213,0.559782,1.185015
13.500,710260,4.886566,1.486799,8.331821,0.557122,0.590113,1.191932
13.520,710280,5.374983,2.133234,8.082825,0.725802,0.653434,1.241419
13.540,710300,4.941632,2.688689,7.960721,0.593306,1.075400,1.386153
13.560,710320,7.259220,6.397307,10.647015,1.056244,0.592241,1.167455
13.580,710340,31.127016,13.493721,12.157756,0.630021,-1.801733,0.554993
13.600,710360,25.462336,8.243237,8.003817,0.706645,2.960675,1.462245
13.620,710380,8.669404,5.480328,10.623073,1.629329,0.329910,1.854412
13.640,710400,13.642161,8.887277,15.796943,1.413823,-1.276006,1.024317
13.660,710420,28.584373,13.658920,13.374011,1.361144,0.197414,0.602351
13.680,710440,21.485565,9.804255,9.081207,0.510296,1.090831,0.740169
13.700,710460,18.751389,9.349358,10.697293,1.071675,-0.153781,0.708242
13.720,710480,18.574217,8.916007,11.219229,1.048794,-0.014899,0.783270
13.740,710500,15.959748,6.979098,9.864111,1.094556,-0.139413,0.766242
13.760,710520,14.053964,4.910508,9.421184,0.922683,0.015963,0.983344
13.780,710540,10.805033,2.746149,8.669404,1.031766,0.573085,1.235033
13.800,710560,7.309498,0.768539,8.190564,1.133400,0.408130,1.382429
13.820,710580,3.770868,-0.277727,8.497022,0.963656,0.277231,1.327621
13.840,710600,2.896984,-0.122104,8.803479,0.906188,0.181983,1.120097
13.860,710620,4.656722,0.617704,8.386889,0.991858,0.005853,0.878518
13.880,710640,7.905654,1.527501,8.015787,1.306336,-0.321928,0.650242
13.900,710660,8.367735,1.067814,7.977480,1.022720,0.055872,0.653434
13.920,710680,6.715736,0.900220,8.547300,1.141914,0.119725,0.749747
13.940,710700,10.800244,5.928043,12.157756,1.362208,-1.717127,0.225084
13.960,710720,32.077515,11.391612,9.753978,0.162826,-2.307772,-0.631086
13.980,710740,16.828844,5.853823,9.217676,1.827275,1.331878,0.718352
14.000,710760,9.088389,4.189853,12.564771,1.334006,0.201671,1.293566
14.020,710780,21.880610,11.281479,15.447390,0.486351,-1.951257,0.563507
14.040,710800,22.735340,13.208811,15.895105,0.214441,0.388442,0.036716
14.060,710820,20.137630,9.114726,13.417107,0.338956,0.702389,0.784334
14.080,710840,21.442471,9.124303,13.541605,0.703985,0.263396,1.379236
14.100,710860,18.186356,7.886500,12.854469,0.832224,0.298515,1.447878
14.120,710880,15.394717,5.568913,11.106702,1.366997,-0.152716,1.368594
14.140,710900,13.508086,4.237737,10.077195,1.213217,-0.107487,1.446814
14.160,710920,9.864111,3.368642,8.762778,0.065450,0.946628,1.583035
14.180,710940,6.548141,2.999935,8.420407,0.441653,0.133560,1.519714
14.200,710960,4.273650,2.990358,7.627927,0.258075,0.046826,1.400520
14.220,710980,3.971981,2.726996,7.426814,0.395892,-0.012771,1.260575
14.240,711000,4.838682,2.370260,8.078036,0.224019,0.386846,1.208428
14.260,711020,4.786009,2.114080,7.230489,0.618315,0.224552,1.145106
14.280,711040,4.292804,1.970428,7.960721,0.800297,0.185175,1.194593
14.300,711060,4.232949,2.331953,8.492233,0.391103,0.535837,1.278667
14.320,711080,4.153940,5.372589,10.929531,0.796573,0.458149,1.114244
14.340,711100,22.409727,10.845734,15.229517,-0.833288,-2.514764,0.672590
14.360,711120,26.927586,9.904813,8.817844,0.665673,0.611397,1.162134
14.380,711140,10.690110,7.295133,9.612720,0.713563,0.998243,1.885807
14.400,711160,15.959748,10.620679,13.697227,1.279199,-0.214973,1.044005
14.420,711180,29.084763,14.784196,11.949461,1.281859,0.039908,0.686425
14.440,711200,19.996372,9.775525,9.773131,0.732719,0.438461,0.950353
14.460,711220,17.628508,10.546458,10.986992,1.042409,-0.364497,0.926940
14.480,711240,16.393099,9.674969,11.200075,0.706645,0.366626,0.940243
14.500,711260,14.286201,7.333440,9.085996,1.011014,-0.176661,0.887032
14.520,711280,12.873623,5.008670,8.643068,0.893417,0.252753,1.065822
14.540,711300,9.588778,2.056619,7.857770,1.233969,0.151120,1.286648
14.560,711320,5.937620,0.265756,7.989451,1.069014,0.100037,1.468099
14.580,711340,3.509900,-0.301669,8.530540,1.166391,0.039908,1.381364
14.600,711360,4.206613,0.169988,8.607155,1.011014,-0.077156,1.152024
14.620,711380,7.187394,0.663194,8.027759,0.918426,-0.054275,0.992390
14.640,711400,6.792350,0.605733,7.699753,0.775820,0.048954,0.901399
14.660,711420,5.322310,0.328006,8.178593,0.657159,0.114936,0.804022
14.680,711440,5.200206,0.478840,9.215282,0.676847,0.053211,0.725802
14.700,711460,11.010934,5.372589,11.295844,0.574682,-1.236630,0.135689
14.720,711480,31.955410,12.260707,7.070077,0.124514,-1.545787,-0.254350
14.740,711500,15.507244,7.232883,10.991780,0.566700,0.863619,1.220666
14.760,711520,9.117120,4.505888,14.159308,1.061032,-0.230405,1.542062
14.780,711540,20.247765,8.499416,18.686745,0.792848,-1.176501,0.686957
14.800,711560,24.803930,11.303026,16.369158,0.378332,-0.103762,0.382057
14.820,711580,20.901381,8.851364,14.719552,-0.073432,0.756664,0.963124
14.840,711600,20.709845,9.564836,15.847221,0.209120,0.249029,1.299419
14.860,711620,19.859903,10.467450,14.911088,0.825839,-0.243708,0.995583
14.880,711640,17.374722,7.793127,12.935872,0.924812,-0.047358,0.990794
14.900,711660,15.243882,5.245696,10.601525,0.818921,-0.046294,1.307933
14.920,711680,12.588713,4.055778,8.901642,0.573085,0.003725,1.494172
14.940,711700,8.250419,3.174711,7.975086,0.539562,-0.179322,1.453200
14.960,711720,4.367024,2.375048,7.924808,0.683233,0.196882,1.296758
14.980,711740,2.964022,1.719037,7.771579,0.948757,0.138349,1.063161
15.000,711760,3.588908,0.804452,8.195353,0.954078,0.211781,1.044005
15.020,711780,5.250484,0.895431,8.240842,0.707178,0.361837,1.218006
15.040,711800,5.528212,1.233014,8.209718,0.615654,0.381525,1.349970
15.060,711820,5.078102,1.747767,8.702923,0.874793,0.512957,1.310061
15.080,711840,4.924873,2.619257,9.275137,0.951417,0.388442,1.244079
15.100,711860,9.832987,7.292738,12.555194,0.821582,-0.461874,0.865747
15.120,711880,29.877243,12.543222,9.148245,0.297983,-0.919491,0.674719
15.140,711900,19.385851,8.523358,8.712500,1.102005,0.997711,1.604852
15.160,711920,10.845734,8.453926,11.755530,2.678655,0.885435,1.763421
15.180,711940,20.209457,13.543999,16.546328,0.464534,-0.365029,1.141914
15.200,711960,25.670631,12.842498,11.427525,0.508168,0.925876,0.982812
15.220,711980,19.663578,10.910378,11.030087,1.055179,0.573085,0.872665
15.240,712000,18.430565,10.627861,12.131420,1.611237,-0.471984,0.593838
15.260,712020,16.905458,9.016563,10.977415,0.372479,0.544883,0.714095
15.280,712040,14.197616,7.175423,9.459491,1.065289,-0.094184,0.841270
15.300,712060,11.219229,4.735731,8.501810,1.018996,-0.161230,1.074867
15.320,712080,8.377312,2.607286,7.855376,1.216941,0.581067,1.261107
15.340,712100,3.371036,-0.138864,9.217676,1.552705,0.332570,1.287180
15.360,712120,2.700660,-1.110910,9.574412,1.395199,0.254882,1.162134
15.380,712140,3.641581,-0.428562,9.586384,1.172244,0.076624,1.041876
15.400,712160,6.483498,0.560243,8.846576,0.819453,0.002661,0.850848
15.420,712180,7.328651,0.730232,8.607155,1.128611,-0.317671,0.680040
15.440,712200,6.275203,0.555455,8.659827,0.631618,0.088331,0.744425
15.460,712220,5.492299,0.596156,8.836999,0.857233,-0.180918,0.816793
15.480,712240,7.659051,4.757279,11.271901,0.684829,-0.831160,0.551269
15.500,712260,31.636982,13.596671,12.198458,-1.152024,-3.371465,-0.582131
15.520,712280,21.935677,10.165780,10.079589,0.649177,0.917894,0.682168
15.540,712300,7.987057,5.576096,14.472949,2.643003,0.266056,1.827275
15.560,712320,18.028339,9.433155,17.855957,0.844995,-1.564943,1.187675
15.580,712340,25.038561,11.425131,16.915035,0.368754,0.070239,0.476241
15.600,712360,18.318037,8.267179,15.428236,0.623104,0.294790,0.839142
15.620,712380,18.930952,9.284714,15.722723,0.460277,0.001596,0.992390
15.640,712400,19.931728,10.934319,14.015656,0.525727,-0.001596,0.849784
15.660,712420,16.950949,8.564059,11.465832,0.772627,0.170808,1.012610
15.680,712440,13.962984,6.088455,9.837775,0.301708,0.694939,1.557494
15.700,712460,10.766725,4.422091,9.234436,1.193529,-0.121854,1.731494
15.720,712480,7.019799,3.404555,8.537724,0.722609,0.288937,1.798540
15.740,712500,4.319140,2.583344,8.049306,0.867876,-0.083542,1.663916
15.760,712520,2.949656,1.671153,7.752425,0.836481,0.287873,1.603255
15.780,712540,3.189077,1.343147,7.441179,1.106262,0.010110,1.587824
15.800,712560,4.355053,1.673547,7.618350,0.732187,0.270313,1.668173
15.820,712580,5.001487,2.296039,7.987057,0.736444,0.385250,1.657531
15.840,712600,5.075707,2.176329,8.178593,0.775288,0.512957,1.646888
15.860,712620,5.571307,4.007894,10.805033,0.871068,0.472516,1.555897
15.880,712640,19.646820,9.263166,14.192827,0.335763,-1.292501,1.111051
15.900,712660,27.607540,8.080431,10.251971,0.790719,1.027509,1.298355
15.920,712680,11.604695,5.360618,8.978256,2.042780,0.821582,2.264139
15.940,712700,11.935096,7.809886,12.990938,0.875325,-0.427819,1.464906
15.960,712720,23.772028,13.134590,14.927848,-0.583727,0.804022,0.763049
15.980,712740,23.250093,10.378864,10.886436,0.764646,0.583195,0.777416
16.000,712760,20.523096,9.430760,10.670957,1.702760,-0.512957,0.796573
16.020,712780,19.055450,9.313444,11.750742,1.139253,0.134092,0.638003
16.040,712800,17.429789,7.343017,10.084377,1.247804,-0.137817,0.580535
16.060,712820,15.100230,5.243302,9.193734,1.279199,-0.359176,0.783802
16.080,712840,12.342110,3.658340,8.626308,0.425158,0.663012,1.106794
16.100,712860,9.205706,1.668759,8.164227,1.328685,0.013303,1.207896
16.120,712880,5.707777,0.500388,8.451532,0.966316,-0.212845,1.222263
16.140,712900,4.309563,0.071826,8.188169,0.764646,-0.174533,1.232373
16.160,712920,3.912126,0.248997,8.243237,0.780609,-0.150588,1.124354
16.180,712940,5.324705,0.579397,8.583213,0.905656,-0.197414,0.848720
16.200,712960,5.731719,0.373495,8.947132,0.769435,0.009046,0.631618
16.220,712980,5.590461,0.196325,9.294291,0.524663,0.186239,0.555526
16.240,713000,6.117185,2.133234,11.010934,0.565636,-0.302772,0.433140
16.260,713020,18.085800,8.327033,14.039598,-1.170648,-2.746233,-0.259139
16.280,713040,27.372908,9.804255,8.075643,0.081945,-0.914169,-0.069707
16.300,713060,11.552023,5.451597,10.828975,0.904059,0.087799,1.130207
16.320,713080,14.358027,5.875371,14.372393,0.935454,-0.414516,0.967381
16.340,713100,26.850971,11.367670,16.929399,0.669398,-0.895013,0.234130
16.360,713120,22.625206,9.184157,15.164873,-0.087266,0.706645,0.665673
16.380,713140,20.961235,7.599196,14.935030,0.477837,-0.129303,1.126482
16.400,713160,19.845537,9.138668,14.714764,0.434204,-0.163359,1.107858
16.420,713180,17.547104,8.908825,13.848063,0.470388,0.181450,0.862022
16.440,713200,15.847221,6.722919,11.477803,0.794976,0.022881,0.922683
16.460,713220,13.934254,4.898537,9.536105,1.075400,-0.230937,1.150427
16.480,713240,10.225636,3.421314,8.722076,0.524131,0.406534,1.437236
16.500,713260,5.827487,2.379837,8.801085,0.761453,-0.104294,1.356887
16.520,713280,2.638410,1.673547,9.162610,0.487947,0.377268,1.200446
16.540,713300,2.573767,1.144428,8.616732,1.091895,-0.222955,0.972702
16.560,713320,4.180276,1.489193,8.485051,0.782206,0.032991,0.963656
16.580,713340,5.181053,1.912967,8.315063,0.557654,0.363965,1.052519
16.600,713360,5.200206,2.183512,8.322245,1.067950,-0.029798,1.102537
16.620,713380,5.169082,2.559402,8.274361,0.542755,0.617783,1.341988
16.640,713400,6.040571,5.722142,11.429919,0.628957,0.449103,1.321768
16.660,713420,22.709003,11.171345,14.164097,1.069546,-1.347309,0.902995
16.680,713440,25.275587,9.397242,10.285490,1.116372,0.676315,1.372850
16.700,713460,11.868058,7.524976,10.563218,1.387750,0.148459,1.932101
16.720,713480,14.757859,9.868899,13.204022,1.683072,-0.933326,1.262703
16.740,713500,27.557262,13.845669,11.906365,0.876389,-0.172404,0.997711
16.760,713520,21.578939,10.486604,10.213664,0.938647,0.175065,1.095620
16.780,713540,18.387468,10.817003,10.709264,0.752939,-0.081945,0.941307
16.800,713560,18.148048,9.844957,11.022904,1.036555,-0.290533,0.690150
16.820,713580,16.510414,8.516175,9.210494,1.617622,-0.865215,0.720480
16.840,713600,14.604630,6.239290,8.848969,1.247804,-0.594370,1.027509
16.860,713620,11.805809,4.264073,7.996634,0.346405,0.376204,1.496833
16.880,713640,8.753201,1.762132,7.484274,1.277602,-0.217102,1.658595
16.900,713660,6.054936,0.201113,7.592013,1.645824,-0.266588,1.726705
16.920,713680,4.091691,-0.102951,8.327033,1.766082,-1.022720,1.615494
16.940,713700,4.814740,0.172383,8.944737,1.209492,-0.837545,1.471291
16.960,713720,5.808333,-0.004788,9.248801,1.148831,-0.931197,1.196189
16.980,713740,5.736507,-0.596156,8.985439,0.951949,-0.768903,1.132868
17.000,713760,5.102044,-0.265756,8.432379,0.801362,-0.658755,1.175437
17.020,713780,4.790798,0.797269,8.705317,0.697600,-0.602351,1.212152
17.040,713800,11.803414,5.463568,9.986216,0.532645,-1.602191,0.534241
17.060,713820,34.991257,12.483368,3.224990,-0.302240,-1.860798,-0.117597
17.080,713840,18.119318,7.335834,5.284003,1.088170,1.417548,1.502154
17.100,713860,8.322245,5.102044,11.987768,2.459957,0.403341,2.060340
17.120,713880,22.522255,9.698911,14.183250,0.330974,-1.414887,1.088170
17.140,713900,26.738445,10.287885,12.641385,0.801894,0.108551,0.580535
17.160,713920,22.641966,6.904878,11.975797,-0.150588,0.836481,1.192996
17.180,713940,22.761675,7.524976,12.476185,0.169744,-0.202203,1.352098
17.200,713960,21.066580,7.716512,10.998962,0.655031,-0.133560,1.349438
17.220,713980,17.592594,5.099649,9.203311,1.157877,0.234662,1.578778
17.240,714000,14.463372,3.507505,7.841011,1.034427,-0.214441,1.712870
17.260,714020,11.212047,2.873042,7.115568,1.107326,-0.377800,1.755439
17.280,714040,7.678205,2.018312,7.173028,0.805086,0.009578,1.695843
17.300,714060,4.690241,0.921768,6.449979,0.768903,0.385782,1.549512
17.320,714080,3.098097,0.122104,6.897695,0.508700,0.543287,1.454264
17.340,714100,3.157952,0.500388,7.350199,0.607673,0.399084,1.330281
17.360,714120,5.133168,1.070208,7.958326,0.708242,0.410791,1.097216
17.380,714140,5.707777,1.525106,8.037335,0.739636,0.642792,0.921087
17.400,714160,5.011064,1.874660,7.924808,0.727930,0.960995,0.842866
17.420,714180,5.707777,4.726154,10.283096,0.779013,1.003032,0.650242
17.440,714200,23.017855,10.910378,12.861651,0.242111,-1.059436,0.092055
17.460,714220,29.436710,9.062054,7.493851,0.791251,1.718192,0.808811
17.480,714240,13.060370,6.617573,7.682993,2.581278,1.714999,1.862926
17.500,714260,14.693215,9.311050,13.426683,0.964188,-0.111744,1.182354
17.520,714280,26.731262,13.759478,13.089101,0.073964,0.533177,0.621507
17.540,714300,22.984337,10.508151,9.390059,1.051987,0.941839,0.740701
17.560,714320,19.254169,9.825804,9.976639,1.275474,0.561379,0.653966
17.580,714340,17.829620,8.803479,10.668563,1.247272,0.296387,0.632150
17.600,714360,16.096218,7.299921,9.500193,1.255254,-0.171872,0.734315
17.620,714380,12.840104,5.116409,9.076419,1.247272,-0.213377,0.957271
17.640,714400,9.828198,2.841918,8.257602,1.330814,0.672058,1.290905
17.660,714420,6.505046,1.055843,8.592790,1.485126,0.296387,1.374447
17.680,714440,3.689465,0.102951,8.916007,0.977491,0.667801,1.383493
17.700,714460,3.342306,-0.064643,9.011775,1.168519,0.253818,1.288777
17.720,714480,4.764462,0.289698,8.942344,1.122758,0.117065,1.050390
17.740,714500,6.241684,0.430956,9.071630,1.101473,0.253286,0.856169
17.760,714520,6.086061,0.287304,8.738836,1.068482,0.285212,0.768371
17.780,714540,5.609614,0.105345,9.160215,0.802426,0.391635,0.713563
17.800,714560,6.047753,2.398990,10.826580,1.034959,-0.111744,0.408662
17.820,714580,23.317131,10.802638,15.792154,-0.534241,-3.357630,-0.756132
17.840,714600,28.392838,10.512939,8.805874,-0.032459,0.160166,-0.071303
17.860,714620,12.607866,5.497087,8.030152,1.968817,1.228648,1.759164
17.880,714640,14.858416,7.405266,16.735470,1.152024,-0.993454,1.467034
17.900,714660,27.918785,12.744335,16.359581,0.011706,-0.246368,0.254350
17.920,714680,21.461624,8.827422,14.698004,0.628425,0.636939,0.606608
17.940,714700,19.926941,7.484274,14.781801,0.322992,0.200074,1.068482
17.960,714720,21.248541,9.179369,13.441049,0.699728,-0.137817,1.053051
17.980,714740,17.611748,7.194576,12.006922,0.812004,0.556590,1.195125
18.000,714760,13.555970,5.207389,10.462662,1.095088,0.073964,1.398392
18.020,714780,11.168951,4.180276,9.270349,0.665673,0.155377,1.528227
18.040,714800,8.339005,3.545813,8.935161,0.539562,0.533177,1.529824
18.060,714820,6.040571,2.492364,7.876924,0.981748,0.049486,1.405841
18.080,714840,4.757279,1.391031,7.879318,0.315011,0.499122,1.348905
18.100,714860,3.763685,0.981623,7.738060,1.047198,-0.174533,1.262703
18.120,714880,3.591303,1.170765,7.410054,0.500186,0.129835,1.224923
18.140,714900,3.536236,1.860295,8.698134,0.360772,0.492736,1.178097
18.160,714920,3.591303,2.284068,8.149862,0.724205,0.776352,1.228116
18.180,714940,4.230555,2.796427,7.864953,1.069546,0.757728,1.464374
18.200,714960,7.831434,7.599196,12.480973,1.190336,0.246368,1.345181
18.220,714980,34.292152,12.435484,12.636597,0.270313,-2.531792,0.450699
18.240,715000,22.421700,6.232107,8.971074,0.743893,1.582503,1.780981
18.260,715020,10.536881,6.074090,9.445126,1.556429,0.979619,2.143882
18.280,715040,18.246212,11.559206,17.207129,1.353694,-1.428722,1.228116
18.300,715060,27.382484,14.314932,12.174516,0.617783,-0.581067,0.627361
18.320,715080,21.289242,10.524911,8.817844,0.558186,0.506571,0.871600
18.340,715100,18.246212,9.564836,11.073183,0.980151,-0.334699,0.685361
18.360,715120,18.363527,8.884883,11.089942,1.289841,-0.385782,0.733783
18.380,715140,15.677233,7.584831,9.418790,1.160538,-0.565636,0.782738
18.400,715160,13.295002,5.382165,8.753201,1.273345,-0.539030,1.008353
18.420,715180,11.683704,2.971204,8.152257,0.730591,0.412387,1.305804
18.440,715200,7.958326,0.653617,8.259995,1.677751,-0.481562,1.412227
18.460,715220,4.244920,-0.699107,8.540117,0.983344,0.083010,1.552172
18.480,715240,2.935291,-0.787692,8.621520,0.587452,0.141542,1.387218
18.500,715260,4.429273,0.272939,8.161834,0.816793,-0.319268,1.102005
18.520,715280,6.789956,1.115698,8.403648,0.749215,-0.296387,0.927472
18.540,715300,6.902483,0.826000,7.975086,0.814664,-0.088863,0.889160
18.560,715320,6.042965,0.574608,8.437167,0.935454,-0.129835,0.923747
18.580,715340,5.578490,2.604892,10.927136,0.883307,-0.435268,0.709306
18.600,715360,21.068975,8.868123,14.326903,-0.634810,-3.217685,-0.275634
18.620,715380,28.419174,10.745177,7.062895,0.091523,-0.359176,0.104826
18.640,715400,11.080365,6.064513,9.581595,0.937582,0.286809,1.512264
18.660,715420,13.939042,6.763620,12.919112,1.136593,-0.606076,1.262703
18.680,715440,27.890055,11.829751,13.948619,0.659820,-0.625232,0.509232
18.700,715460,22.558168,8.657434,12.871228,0.442186,0.817325,0.807215
18.720,715480,21.294029,7.443573,12.528857,0.532113,0.483690,1.280795
18.740,715500,20.824766,8.185776,13.304579,0.727930,0.328313,1.169051
18.760,715520,18.461689,6.936002,11.463438,1.006757,0.101633,1.018463
18.780,715540,15.670050,4.742914,9.830592,0.655563,0.570425,1.257914
18.800,715560,13.467384,3.912126,8.437167,0.604480,0.101101,1.388282
18.820,715580,10.235212,3.500323,8.025364,0.636939,-0.193157,1.465970
18.840,715600,6.538565,2.604892,8.001422,0.485819,0.084606,1.428722
18.860,715620,3.895366,1.747767,7.685388,0.523599,0.385782,1.291437
18.880,715640,2.853889,0.811634,8.195353,0.575214,0.602351,1.159473
18.900,715660,3.993528,0.797269,8.331821,0.751875,0.195817,1.050922
18.920,715680,4.972757,1.161188,8.485051,0.515617,0.414516,1.071675
18.940,715700,5.518635,1.345541,8.267179,0.812004,0.303836,1.024849
18.960,715720,5.609614,1.302446,8.449138,0.524663,0.837013,1.099877
18.980,715740,4.946421,4.141969,10.608707,0.907784,0.644388,1.044537
19.000,715760,22.357056,10.972627,14.860810,0.450699,-1.016867,0.753471
19.020,715780,30.894779,10.208876,7.594408,1.084978,1.159473,1.354759
19.040,715800,9.710882,6.943185,8.786720,0.886500,0.881711,2.036927
19.060,715820,13.737929,8.851364,12.914324,1.581439,-0.330442,1.116372
19.080,715840,28.402414,13.354857,12.631808,1.435640,-0.424094,0.612462
19.100,715860,22.261288,9.753978,9.497798,0.792316,0.846059,0.925344
19.120,715880,19.134460,10.196905,10.611102,0.660884,0.099505,0.776352
19.140,715900,17.592594,9.334992,11.152191,0.632150,0.064918,0.532113
19.160,715920,17.156849,8.006210,8.583213,0.948757,-0.313414,0.630021
19.180,715940,15.057135,6.438008,8.432379,0.999840,-0.408130,0.954078
19.200,715960,12.033257,4.223372,7.824251,1.474484,-0.547544,1.171712
19.220,715980,9.236830,2.731784,7.965509,2.113551,-0.409727,1.338263
19.240,716000,4.809951,0.842759,9.560047,2.022028,0.275634,1.349438
19.260,716020,1.798046,-0.177171,9.421184,0.151652,1.509071,1.195125
19.280,716040,2.456451,-0.040701,9.744401,0.766242,0.354387,0.914169
19.300,716060,5.930438,0.938527,9.004593,0.833820,-0.114404,0.713031
19.320,716080,7.673417,0.893037,8.676587,1.435108,-0.693875,0.626829
19.340,716100,7.297527,0.500388,8.073248,0.352791,0.162294,0.804022
19.360,716120,6.186617,1.039083,9.533711,0.938647,-0.540626,0.870004
19.380,716140,13.385982,7.017405,12.880805,0.053743,-2.204542,0.116533
19.400,716160,34.306515,12.145785,5.887342,-0.644388,-1.710210,-0.337891
19.420,716180,14.896723,7.084443,6.928820,1.397328,1.573989,1.489915
19.440,716200,8.561666,6.320693,14.453795,1.717127,-0.785930,1.530888
19.460,716220,27.696125,10.905589,15.693993,1.279199,-2.217313,0.372479
19.480,716240,25.198973,9.564836,13.769054,1.078060,0.224019,0.740169
19.500,716260,21.408951,7.671022,12.650962,-0.344809,0.948757,1.526099
19.520,716280,20.214245,8.271967,14.197616,0.343745,-0.004789,1.480869
19.540,716300,19.658791,7.924808,12.296620,0.434204,0.504443,1.274942
19.560,716320,16.953342,5.453991,9.986216,1.210024,0.114936,1.380832
19.580,716340,14.154520,4.091691,8.382100,1.550576,-0.871600,1.656999
19.600,716360,9.548077,3.301604,8.671799,0.920023,-0.108551,2.008725
19.620,716380,5.676652,2.525883,8.188169,1.048794,-0.543819,1.926248
19.640,716400,3.059790,2.154782,7.594408,0.537434,0.109083,1.815568
19.660,716420,1.606509,1.766921,7.864953,0.426754,0.260203,1.586228
19.680,716440,3.306392,1.922544,7.764396,1.081253,-0.162826,1.319639
19.700,716460,5.312734,2.197877,8.939949,0.585324,0.353855,1.146170
19.720,716480,5.540183,2.166753,7.869741,1.046665,0.172404,1.128611
19.740,716500,5.693412,2.188300,8.159439,0.603948,0.663012,1.320171
19.760,716520,5.363012,4.596867,10.098742,1.419676,0.223487,1.320703
19.780,716540,22.878992,10.170568,13.402741,0.489011,-1.555365,0.771563
19.800,716560,30.104692,7.687782,7.240066,1.154684,1.368594,1.285052
19.820,716580,12.009315,5.006276,8.793902,2.062469,0.870536,2.144414
19.840,716600,13.098678,7.218518,12.797009,1.558026,-1.126482,1.290905
19.860,716620,28.641834,13.330915,12.995727,0.281488,-0.109083,0.534773
19.880,716640,23.185450,9.414001,9.143456,0.839142,0.688554,0.797637
19.900,716660,19.677944,8.803479,9.045294,0.872665,0.135157,0.779013
19.920,716680,18.708292,8.319851,10.884041,0.545415,0.387378,0.663012
19.940,716700,17.470490,6.622362,9.162610,0.913105,-0.073964,0.685893
19.960,716720,15.207970,5.188235,8.075643,1.261107,-0.346937,0.942371
19.980,716740,12.873623,3.459621,8.094796,1.336667,-0.508700,1.221198
20.000,716760,9.021352,1.731008,8.836999,1.008885,0.325653,1.559090
20.020,716780,5.185841,0.639252,8.221688,1.441493,0.135157,1.489383
20.040,716800,3.655946,-0.198719,8.678981,1.226519,0.067046,1.337731
20.060,716820,3.450045,0.040701,7.699753,0.701857,0.302772,1.109455
20.080,716840,5.832275,0.816423,7.501034,0.960463,-0.159102,0.732719
20.100,716860,7.781156,0.900220,7.563283,1.036555,-0.283084,0.442186
20.120,716880,6.528988,0.047884,7.970297,1.084445,-0.136221,0.277763
20.140,716900,5.758055,1.228225,9.811439,0.774756,-0.086734,0.055872
20.160,716920,18.614918,7.386112,12.773067,-0.170276,-2.550416,-0.797637
20.180,716940,28.986601,10.510546,7.462727,-0.032459,-0.706113,-0.466663
20.200,716960,13.369223,6.004658,7.651869,1.396263,1.002500,1.218538
20.220,716980,13.326127,7.316680,15.674838,1.661788,-0.480498,1.155748
20.240,717000,26.906038,11.712435,14.288596,0.379396,-0.849252,0.348534
20.260,717020,22.795195,9.667787,12.200851,0.634810,-0.115468,0.813068
20.280,717040,21.969194,8.559271,13.575124,-0.210184,-0.356515,1.492576
20.300,717060,20.654778,8.231265,12.971785,-0.080881,0.163359,1.639439
20.320,717080,18.420988,7.000646,10.529699,-0.011706,0.162826,1.561751
20.340,717100,15.162479,4.994305,9.224859,0.883839,-0.388442,1.594741
20.360,717120,12.248735,3.612850,8.432379,0.908316,-0.212845,1.778320
20.380,717140,8.825027,2.815581,7.881712,0.968977,-0.199542,1.725109
20.400,717160,6.414066,2.138022,7.091625,1.113712,-0.592241,1.495236
20.420,717180,4.726154,1.498770,6.880936,1.448943,-0.638003,1.356887
20.440,717200,3.933673,1.156399,7.192182,0.341084,0.361304,1.345713
20.460,717220,4.994305,1.125275,7.778761,0.321928,0.376204,1.265896
20.480,717240,4.979939,1.616086,8.207323,0.565104,0.302240,1.240887
20.500,717260,4.551377,2.363077,8.207323,0.375139,0.857233,1.222263
20.520,717280,3.643975,3.773262,9.576807,0.630553,1.039748,1.149895
20.540,717300,15.406688,9.516952,13.702016,0.573085,-0.830628,0.649177
20.560,717320,31.895555,10.469844,5.082890,1.045601,0.590113,1.084445
20.580,717340,12.921507,6.181829,8.372523,0.884903,1.015271,1.931569
20.600,717360,13.654132,7.757214,11.171345,1.094556,0.283084,1.228116
20.620,717380,22.534225,11.724405,15.049952,1.976266,-0.435268,0.656095
20.640,717400,23.874979,10.560823,10.041282,0.897142,0.881178,0.680040
20.660,717420,20.762518,10.275913,10.017340,0.798701,0.353323,0.541691
20.680,717440,18.327614,9.792285,11.338940,0.403341,0.220827,0.489011
20.700,717460,16.742653,8.078036,9.938332,1.152024,-0.441653,0.577342
20.720,717480,14.446613,6.306327,8.808268,0.817857,-0.304368,0.818389
20.740,717500,12.552799,4.003105,7.644686,0.822114,-0.305433,1.116372
20.760,717520,9.469068,2.059013,7.920019,0.873197,-0.140478,1.407438
20.780,717540,6.411672,0.524330,8.829816,0.777949,0.145799,1.577714
20.800,717560,4.757279,-0.351948,8.796297,0.500718,0.442186,1.510668
20.820,717580,4.599261,-0.478840,8.434772,0.698132,0.155377,1.276538
20.840,717600,5.592855,-0.021548,8.444349,0.906188,-0.185175,0.942904
20.860,717620,6.801927,0.330400,8.176199,1.035491,-0.317139,0.731123
20.880,717640,6.387730,0.079009,8.051701,0.882775,-0.095248,0.735380
20.900,717660,5.918467,1.266533,9.583989,0.890224,-0.248497,0.707710
20.920,717680,20.973207,7.467515,11.329363,0.396424,-1.834724,0.009046
20.940,717700,29.800629,11.559206,6.359000,0.206460,-0.545947,0.204331
20.960,717720,10.316615,6.768408,9.921572,1.343584,0.077156,1.538337
20.980,717740,11.705252,6.490681,11.135432,1.340392,-0.343745,1.314318
21.000,717760,27.427975,9.921572,12.416330,1.150427,-0.800829,0.639599
21.020,717780,22.811954,7.580042,11.061212,0.416112,0.432075,0.987601
21.040,717800,20.590134,6.639122,11.729194,0.557122,-0.298515,1.487787
21.060,717820,19.203892,7.268796,12.437878,0.325653,0.096844,1.399456
21.080,717840,17.099388,6.138733,11.269507,0.771563,0.086734,1.099877
21.100,717860,16.486473,4.496311,9.169792,0.653966,0.253286,1.062629
21.120,717880,15.021221,3.552995,7.264008,0.742297,0.099505,1.274942
21.140,717900,11.077971,2.940080,6.775591,0.969509,-0.162826,1.412227
21.160,717920,7.422025,2.451663,6.186617,0.712499,0.667269,1.427658
21.180,717940,4.537012,2.006341,7.345411,1.240355,0.294258,1.243547
21.200,717960,3.519476,1.661576,8.508993,0.888628,0.857233,1.278134
21.220,717980,5.382165,1.498770,7.091625,1.163730,0.152184,1.220134
21.240,718000,5.820304,1.707066,7.302315,0.911509,0.299047,1.370722
21.260,718020,5.944803,2.621651,8.216900,0.758260,0.566168,1.521842
21.280,718040,8.769960,6.071695,11.056423,0.784334,0.440589,1.323896
21.300,718060,27.186161,10.163386,11.276690,0.212313,-0.875325,1.086042
21.320,718080,24.947582,7.644686,7.038953,1.295162,1.199914,1.693182
21.340,718100,8.568848,6.567295,11.324574,2.147606,1.067418,1.963495
21.360,718120,14.188039,9.658210,15.033193,1.009418,-1.070078,1.164262
21.380,718140,27.803864,12.804191,13.453019,0.192625,-0.360772,0.875325
21.400,718160,22.883780,9.698911,8.980651,0.320864,0.752407,0.948225
21.420,718180,19.979612,10.105926,9.038112,0.744958,-0.313946,1.044537
21.440,718200,16.958130,8.576031,9.914390,1.300483,-0.254350,1.132868
21.460,718220,15.023616,6.572083,8.418014,0.935986,-0.209652,1.113712
21.480,718240,13.359646,4.218584,7.673417,1.133932,-0.392699,1.331878
21.500,718260,9.572019,1.855506,8.245630,1.450007,-0.283616,1.611769
21.520,718280,4.893748,-0.074220,8.971074,1.479805,-0.309690,1.636246
21.540,718300,2.602497,-0.897826,9.607931,1.064225,0.283084,1.441493
21.560,718320,2.803610,-0.507571,8.923190,0.717288,0.237854,1.137125
21.580,718340,5.683835,0.562637,8.494628,0.582663,0.205395,0.878518
21.600,718360,7.771579,1.041478,8.719683,0.832224,0.027670,0.768371
21.620,718380,7.637504,0.694318,8.655039,0.801362,0.153248,0.726866
21.640,718400,6.550536,0.205901,8.777143,0.991858,-0.107487,0.672590
21.660,718420,10.175357,3.981557,11.336545,0.883839,-1.281859,0.196882
21.680,718440,34.634521,10.237606,7.146692,-1.129675,-2.520617,-0.460277
21.700,718460,19.223045,7.936779,7.699753,0.721545,0.753471,1.076996
21.720,718480,10.055647,5.157111,12.109872,1.884743,-0.187836,1.697971
21.740,718500,20.858286,8.997410,15.030798,0.413984,-1.086574,0.632682
21.760,718520,25.814283,9.131485,13.278243,1.057308,-0.081413,0.131964
21.780,718540,22.395363,5.889736,11.963826,0.459213,0.588517,1.057840
21.800,718560,20.144814,6.287174,13.215993,0.314479,0.408130,1.306869
21.820,718580,20.298042,7.383718,13.117831,0.440057,0.293726,0.944500
21.840,718600,18.502390,5.865794,10.467450,0.911509,0.193157,0.929069
21.860,718620,15.729905,4.314352,9.045294,0.313946,0.825839,1.318043
21.880,718640,12.696451,3.246537,8.305486,0.834885,0.147395,1.561218
21.900,718660,8.054094,2.327164,7.728483,0.856701,0.017028,1.592613
21.920,718680,4.972757,1.371878,7.781156,0.865215,-0.004789,1.410098
21.940,718700,3.399766,0.895431,7.663840,0.524131,0.260735,1.241951
21.960,718720,4.314352,1.096544,7.522582,0.542223,0.023413,1.186079
21.980,718740,4.908113,1.106121,7.826645,0.391103,0.414516,1.206299
22.000,718760,5.427655,1.453280,8.327033,0.416644,0.567764,1.228648
22.020,718780,5.396531,2.080561,8.233660,0.458149,0.816261,1.254189
22.040,718800,5.046977,4.841076,9.964667,0.922151,0.711435,1.224391
22.060,718820,20.575769,10.955867,13.752295,0.667801,-1.419676,0.867876
22.080,718840,30.521284,8.303091,9.057265,0.338424,1.358483,1.095620
22.100,718860,12.442666,5.710171,6.696582,1.935826,1.520246,1.848559
22.120,718880,13.395558,8.135497,14.343662,0.740701,-0.461342,0.950353
22.140,718900,28.251579,13.089101,13.407530,0.592241,0.291598,0.490608
22.160,718920,22.325932,9.866506,10.455479,0.520938,1.132868,0.930133
22.180,718940,19.151220,10.175357,10.845734,1.376575,-0.285744,0.755068
22.200,718960,18.440142,9.311050,11.607090,1.250465,-0.040973,0.658755
22.220,718980,16.618155,7.326257,9.454702,1.329749,-0.343213,0.703985
22.240,719000,14.537593,5.391742,9.018958,1.210024,-0.220295,0.925876
22.260,719020,12.310986,3.181894,8.434772,0.884903,0.169744,1.193529
22.280,719040,8.712500,0.933739,8.348581,1.534081,-0.394295,1.278667
22.300,719060,5.631162,-0.548272,8.961497,1.099345,-0.237322,1.328153
22.320,719080,4.201824,-0.890643,8.611943,0.997711,-0.283616,1.317511
22.340,719100,4.999093,-0.011971,8.695741,0.889692,-0.369818,1.268024
22.360,719120,7.419631,0.588974,8.346188,1.076464,-0.629489,1.032298
22.380,719140,7.635109,0.493206,8.190564,0.633214,-0.235726,0.888628
22.400,719160,6.023811,0.153229,8.576031,0.750811,-0.488479,0.798701
22.420,719180,5.741296,1.699883,9.969456,0.514021,-0.559782,0.699196
22.440,719200,16.759413,8.485051,13.453019,-1.000372,-3.348584,-0.120257
22.460,719220,28.426357,10.891224,7.072472,0.070239,-1.312722,-0.309157
22.480,719240,14.745889,6.387730,9.337387,1.304208,-0.219230,1.080721
22.500,719260,14.132973,4.438850,12.121843,1.339859,-0.569360,1.255254
22.520,719280,24.650702,9.909601,13.048399,0.493268,-0.787527,0.640131
22.540,719300,23.637953,8.863335,12.538434,0.130900,0.528388,0.641196
22.560,719320,22.285229,6.107608,11.147403,0.331506,0.242111,1.199382
22.580,719340,20.532673,6.406884,11.820174,0.363965,0.141542,1.424998
22.600,719360,18.849550,6.557718,11.674128,0.478369,-0.028202,1.317511
22.620,719380,16.036364,5.370194,10.024523,0.738040,-0.059597,1.357419
22.640,719400,13.924677,3.916914,8.951921,0.817857,0.123450,1.597934
22.660,719420,11.760319,3.100491,7.817069,0.733251,0.166551,1.770339
22.680,719440,8.523358,2.451663,7.331046,1.030702,-0.100569,1.794284
22.700,719460,5.856217,2.090138,7.352593,0.950353,-0.229873,1.715531
22.720,719480,4.240131,1.527501,7.821857,0.849784,0.115468,1.528759
22.740,719500,4.438850,1.254562,7.647080,0.930665,0.253286,1.417548
22.760,719520,5.655105,1.146823,7.630321,0.813600,0.333635,1.476080
22.780,719540,6.129156,1.400608,7.529764,0.694939,0.431011,1.556961
22.800,719560,5.588067,2.102109,8.556877,0.808279,0.520406,1.492044
22.820,719580,10.536881,5.109226,10.781090,0.909380,-0.064918,0.964188
22.840,719600,32.072727,10.340557,6.509834,1.177033,-1.333474,0.594370
22.860,719620,20.228611,7.134721,7.668628,0.787527,0.897674,1.438832
22.880,719640,10.134656,5.691018,9.313444,1.149895,-0.219763,1.324428
22.900,719660,20.398598,8.145074,12.655750,0.757196,-0.160698,0.731655
22.920,719680,29.798235,12.050017,7.941567,0.649177,0.558186,0.883839
22.940,719700,22.019472,9.308656,6.766014,0.734315,0.094184,0.790187
22.960,719720,18.969259,8.966286,7.965509,0.955142,-0.249029,0.600223
22.980,719740,16.266207,7.156269,8.295909,0.857233,0.026606,0.680572
23.000,719760,14.391546,5.489904,7.656657,0.937582,-0.045230,0.715159
23.020,719780,12.636597,3.555390,7.477092,0.965252,-0.270313,0.922151
23.040,719800,9.864111,2.063802,7.402872,0.779545,0.142074,1.267492
23.060,719820,6.581660,0.426168,7.891289,0.983344,0.141542,1.414355
23.080,719840,4.412514,-0.414197,8.152257,1.089234,0.183579,1.345181
23.100,719860,3.433285,-0.402226,8.360553,1.067418,0.459745,1.240887
23.120,719880,4.256891,0.016759,8.607155,1.008885,0.325121,0.960995
23.140,719900,6.172252,0.074220,8.667010,0.746022,0.608205,0.774756
23.160,719920,6.545747,-0.172383,8.487445,0.451231,1.058904,0.645985
23.180,719940,6.806715,0.780510,9.074024,0.821582,0.499122,0.544883
23.200,719960,17.209522,5.951985,11.496957,-0.053211,-1.488851,-0.156973
23.220,719980,35.178005,12.926295,5.808333,0.600755,-1.138189,-0.285744
23.240,720000,15.698781,6.306327,6.265626,2.062469,1.471823,1.447878
23.260,720020,10.860099,4.517859,14.693215,1.981587,-0.351194,1.488319
23.280,720040,27.997795,11.104307,13.239936,-0.495397,0.627361,0.813068
23.300,720060,23.683443,7.625533,13.120225,1.047198,0.790719,0.883839
23.320,720080,21.622036,5.104438,13.524845,1.038684,0.109615,1.371786
23.340,720100,21.495142,6.260838,13.397953,0.536370,-0.123450,1.341988
23.360,720120,19.855114,6.193800,11.707646,1.272281,-0.135157,1.116372
23.380,720140,17.353174,4.505888,9.940725,0.592773,0.353855,1.299419
23.400,720160,14.013263,3.629610,8.678981,1.248336,-0.648113,1.445218
23.420,720180,10.287885,3.074155,8.111555,0.512957,-0.336295,1.653274
23.440,720200,7.096414,2.753332,8.370130,0.550736,0.407598,1.659659
23.460,720220,3.823540,2.284068,7.163452,0.997179,-0.038844,1.357419
23.480,720240,3.615245,1.431733,7.139510,0.990794,-0.262332,1.162134
23.500,720260,4.326323,0.758962,7.733272,0.668866,0.180918,1.153620
23.520,720280,5.046977,0.612916,7.963115,0.502846,0.500186,1.323896
23.540,720300,4.515464,0.976834,7.860164,0.643324,0.569360,1.504282
23.560,720320,3.371036,1.702277,7.769185,0.653966,0.906188,1.626136
23.580,720340,8.243237,5.216966,10.769119,0.908316,0.365561,1.260575
23.600,720360,36.712688,11.674128,9.651027,0.112276,-1.702228,0.646517
23.620,720380,23.831884,7.536947,9.035717,0.902995,1.989037,1.525035
23.640,720400,9.830592,5.865794,11.501745,2.032138,-0.222955,1.655402
23.660,720420,21.107283,10.647015,14.135366,0.225084,-0.742829,0.756664
23.680,720440,28.332983,11.702858,11.427525,1.004097,1.045601,0.763049
23.700,720460,20.733788,8.183381,9.200917,0.858830,0.319800,0.924812
23.720,720480,19.579781,9.016563,10.740389,0.935986,0.119193,0.760921
23.740,720500,18.497602,8.078036,10.441113,0.995583,-0.134092,0.766774
23.760,720520,17.152061,6.378153,8.597578,1.622943,0.109615,0.989729
23.780,720540,12.732365,3.916914,8.238448,1.642099,-0.365029,1.200446
23.800,720560,8.865729,1.625663,8.250419,1.278134,0.083542,1.452135
23.820,720580,5.664681,-0.215478,8.753201,1.398392,0.054808,1.515989
23.840,720600,4.352659,-0.933739,8.221688,0.948757,0.398552,1.474484
23.860,720620,3.928885,-0.823605,8.200141,1.067950,0.005853,1.250465
23.880,720640,6.751649,-0.016759,7.740454,0.775820,-0.339488,0.989729
23.900,720660,8.635885,0.316035,7.594408,0.943968,-0.535305,0.926940
23.920,720680,8.221688,0.098162,7.199365,0.897142,-0.490076,1.069014
23.940,720700,7.479486,0.414197,7.637504,0.931197,-0.639067,1.239822
23.960,720720,13.680469,3.706224,10.441113,0.603948,-2.119936,0.860958
23.980,720740,31.577126,9.459491,6.505046,-0.342681,-2.396103,0.377800
24.000,720760,16.639702,6.124368,6.658275,1.059436,0.343213,1.540998
24.020,720780,9.698911,3.689465,11.654974,2.353002,-0.154845,1.672962
24.040,720800,25.495853,7.548918,13.261483,0.413451,-1.743733,0.368754
24.060,720820,28.344954,8.592790,10.881647,0.449103,0.311286,0.487415
24.080,720840,22.500708,5.418078,10.474632,0.210184,0.507103,1.305804
24.100,720860,21.729774,5.351041,11.154586,0.280955,0.211781,1.369126
24.120,720880,20.815189,5.020641,10.512939,0.580003,0.085138,1.293034
24.140,720900,16.958130,3.349488,8.856153,1.089234,-0.237854,1.462245
24.160,720920,14.717158,2.868254,7.572860,1.048794,0.398020,1.849623
24.180,720940,10.929531,2.102109,8.101978,1.002500,-0.350130,1.841642
24.200,720960,8.449138,1.874660,7.541735,0.618847,-0.479966,1.652742
24.220,720980,6.521805,1.319205,7.675811,0.772627,-0.097909,1.527695
24.240,721000,4.407725,0.835576,7.041347,0.340020,-0.383653,1.449475
24.260,721020,3.828329,1.434127,7.807492,0.083542,-0.138349,1.517053
24.280,721040,3.112462,1.956063,7.884106,-0.005853,0.204331,1.506943
24.300,721060,3.715801,2.772485,7.793127,0.207524,0.519342,1.386153
24.320,721080,3.964798,2.949656,7.991845,0.585856,0.796040,1.167455
24.340,721100,6.567295,4.704607,10.335769,0.965784,0.512424,0.715691
24.360,721120,31.198843,9.888053,9.643845,-0.212313,-2.590856,0.379928
24.380,721140,26.056097,6.684611,6.071695,0.274570,1.166923,1.090299
24.400,721160,12.828133,5.856217,9.265560,1.114244,0.368754,1.147235
24.420,721180,19.345150,7.366959,12.495338,1.385089,0.127707,0.358112
24.440,721200,31.292215,9.631873,9.615114,1.211088,0.638003,0.768371
24.460,721220,23.233334,7.290344,7.929596,0.547544,0.564571,0.786995
24.480,721240,20.618866,9.390059,9.138668,0.603948,0.218166,0.603948
24.500,721260,19.026720,8.458714,9.935937,0.965252,0.405470,0.575746
24.520,721280,16.694769,5.889736,8.133103,1.162134,0.280423,0.572553
24.540,721300,14.532804,3.301604,6.986280,1.389878,0.050019,0.853509
24.560,721320,10.398018,0.905008,7.218518,1.525035,-0.263396,1.239822
24.580,721340,6.818686,-0.282516,7.548918,1.127015,0.254350,1.545255
24.600,721360,4.225766,-0.940921,8.068460,0.983344,0.271910,1.486190
24.620,721380,4.012682,-0.873884,7.778761,0.943436,0.247964,1.201510
24.640,721400,6.248867,-0.330400,7.290344,1.133932,-0.007982,0.907252
24.660,721420,6.845023,-0.009577,7.357382,0.954078,0.151120,0.738040
24.680,721440,5.307945,-0.047884,7.946355,0.848720,0.336827,0.550204
24.700,721460,4.874595,0.263362,8.501810,0.940775,0.379928,0.318735
24.720,721480,6.507440,1.850718,10.307038,0.950885,0.277763,-0.069175
24.740,721500,28.670565,9.241618,10.675745,0.703985,-2.086413,-0.923215
24.760,721520,29.836542,11.104307,7.714118,0.313946,0.371947,-0.030863
24.780,721540,12.066776,6.193800,9.988609,1.094556,0.556058,1.536209
24.800,721560,17.171215,6.567295,12.797009,1.420209,-0.487415,0.992922
24.820,721580,30.542831,10.072407,11.947066,0.772095,0.553929,0.877454
24.840,721600,23.374592,6.076484,11.666945,0.874793,0.781673,1.433511
24.860,721620,21.282059,5.195418,12.909535,0.820518,0.663012,1.451071
24.880,721640,20.731392,5.702989,13.175292,0.717820,0.481562,1.120097
24.900,721660,19.060240,4.855441,11.520899,0.866811,0.113872,1.050922
24.920,721680,15.595830,3.598485,9.816227,0.633214,-0.025541,1.410630
24.940,721700,10.900801,2.753332,8.611943,0.591709,-0.421965,1.659127
24.960,721720,6.203377,2.403779,8.396465,0.452828,-0.048422,1.606980
24.980,721740,2.372654,1.673547,8.365341,0.320864,0.159102,1.330281
25.000,721760,1.553837,1.450886,8.784326,0.451231,0.364497,1.010482
25.020,721780,4.817134,1.831564,8.968679,0.316607,0.411855,0.860426
25.040,721800,6.703765,1.960851,8.200141,0.468791,0.495397,0.933858
25.060,721820,6.629545,1.498770,8.312668,0.625764,0.638003,1.136060
25.080,721840,4.996699,0.921768,8.216900,0.672590,1.297290,1.312722
25.100,721860,3.818752,2.339135,9.416395,0.957803,1.423933,1.210024
25.120,721880,15.720328,7.256825,13.761871,2.286488,-1.132336,0.552865
25.140,721900,38.826771,10.931925,2.889802,0.546480,0.057468,0.862555
25.160,721920,17.918205,5.679047,5.561730,1.600595,1.789495,2.288616
25.180,721940,10.311827,6.591237,14.348451,1.834192,0.055872,1.813440
25.200,721960,25.792734,12.670115,13.946225,0.612994,-0.641196,0.726866
25.220,721980,24.581268,10.292673,10.273520,1.121693,0.653966,0.697600
25.240,722000,19.512743,9.100361,9.689334,1.091895,-0.355451,0.434204
25.260,722020,18.856733,9.313444,10.218452,1.569200,-0.794444,0.342148
25.280,722040,17.800890,8.195353,8.638280,0.734847,-0.197946,0.556058
25.300,722060,15.234305,5.887342,8.975863,0.310222,0.123982,0.949821
25.320,722080,12.140997,4.053383,7.970297,0.840206,0.425158,1.301547
25.340,722100,8.676587,1.709460,8.039729,1.404245,-0.202203,1.514392
25.360,722120,6.406884,-0.007183,7.905654,1.143510,-0.189964,1.679879
25.380,722140,4.546589,-0.871489,7.400477,1.114244,-0.124514,1.688393
25.400,722160,4.079720,-0.538695,6.962338,1.151492,-0.463470,1.494172
25.420,722180,4.850653,0.100556,7.465121,0.665141,0.007982,1.245676
25.440,722200,5.492299,-0.390255,8.123527,0.842334,0.253286,1.087638
25.460,722220,5.121197,-0.313640,7.996634,0.973766,0.367690,1.016867
25.480,722240,6.014235,1.929727,9.315839,0.798169,0.086202,0.802958
25.500,722260,26.125528,9.222465,14.152126,-0.562443,-3.291648,-0.281488
25.520,722280,29.915550,9.677363,9.868899,-0.239451,0.614590,0.583727
25.540,722300,12.983756,4.498705,5.504270,2.094395,0.586388,2.236469
25.560,722320,16.766594,5.295974,13.230358,1.330281,-1.408502,1.625604
25.580,722340,27.878084,8.312668,13.848063,0.042569,-0.590645,0.845527
25.600,722360,22.038626,5.600038,12.279860,0.375672,0.181983,1.368594
25.620,722380,20.623653,5.427655,13.364434,0.492736,-0.209652,1.396796
25.640,722400,20.116083,5.760449,12.186486,0.332038,0.087799,1.172244
25.660,722420,19.318813,5.267244,10.328587,0.294790,0.152716,1.089234
25.680,722440,16.974890,4.393360,9.473856,0.596498,0.030330,1.156281
25.700,722460,12.531252,3.241749,8.942344,0.458681,0.184643,1.365933
25.720,722480,9.349358,2.743755,8.192958,0.946096,-0.030330,1.406906
25.740,722500,6.694188,1.714248,7.762002,0.748682,0.110147,1.392539
25.760,722520,3.574543,1.163582,7.328651,0.731655,0.128771,1.373383
25.780,722540,4.297592,0.883460,7.989451,0.219763,0.249029,1.365401
25.800,722560,4.687847,0.679953,8.020576,0.521470,-0.036184,1.241951
25.820,722580,5.231331,1.098939,8.025364,0.454956,0.192093,1.183950
25.840,722600,5.094861,1.096544,7.943961,0.716756,0.220827,1.123822
25.860,722620,4.548983,1.295263,7.821857,0.736444,0.413451,1.085510
25.880,722640,9.885659,5.966351,11.451467,0.624168,-0.503379,0.546480
25.900,722660,36.844372,11.077971,8.523358,0.183047,-1.348373,-0.010642
25.920,722680,20.010738,4.714183,6.478710,1.487255,2.223166,1.441493
25.940,722700,9.940725,4.752491,11.365275,1.346245,0.334167,1.561218
25.960,722720,25.345018,10.158598,11.575965,0.850848,-1.821953,0.834352
25.980,722740,29.290663,10.254366,9.040505,1.623476,0.311818,1.041344
26.000,722760,20.690691,6.979098,8.492233,0.812536,0.217102,1.073803
26.020,722780,19.235016,7.496245,10.515334,0.699728,0.179854,0.658755
26.040,722800,18.717869,7.268796,9.722853,0.663544,-0.118661,0.531580
26.060,722820,18.054674,6.466739,8.808268,0.678976,0.119193,0.743361
26.080,722840,15.849615,4.410120,7.773973,0.945032,0.494333,1.176501
26.100,722860,11.324574,2.233790,7.967903,1.848559,-0.056404,1.484062
26.120,722880,7.120356,0.464475,8.020576,1.651677,-0.281488,1.568668
26.140,722900,2.856283,-0.727837,8.947132,0.972170,0.645985,1.494704
26.160,722920,2.310405,-1.101333,8.607155,0.804022,0.191028,1.094556
26.180,722940,5.544971,-0.416591,8.848969,0.751875,-0.093652,0.769967
26.200,722960,8.248025,-0.313640,7.702147,0.651838,-0.312882,0.639067
26.220,722980,7.350199,-0.454898,7.603985,1.053051,-0.353855,0.619379
26.240,723000,6.277597,-0.675165,8.465898,0.597030,-0.189964,0.589049
26.260,723020,6.696582,1.661576,10.611102,0.564039,-0.721545,0.302772
26.280,723040,27.425581,9.294291,12.315774,-1.779384,-4.958225,-0.665673
26.300,723060,25.256433,11.013328,8.762778,-0.308093,-0.740169,0.050019
26.320,723080,11.389217,6.311116,10.180145,0.976959,0.053211,1.164794
26.340,723100,20.559010,6.943185,11.556811,1.185547,-0.632150,0.769967
26.360,723120,30.573956,9.993398,10.771513,0.687489,-0.006917,0.658223
26.380,723140,23.274035,6.181829,11.061212,0.783802,0.502846,1.527163
26.400,723160,20.468031,5.614403,12.215217,0.536902,0.270313,1.701164
26.420,723180,19.984402,6.291962,11.585542,0.423562,0.290533,1.177565
26.440,723200,18.813637,5.171476,10.129868,0.734847,0.317671,1.053583
26.460,723220,16.323668,3.090914,8.248025,0.913637,-0.043101,1.219602
26.480,723240,12.208035,2.214637,7.615956,0.746022,-0.266056,1.561751
26.500,723260,8.001422,2.118869,7.735666,0.606608,-0.201671,1.661255
26.520,723280,4.560954,1.549049,7.936779,0.488479,-0.184111,1.438832
26.540,723300,3.464410,1.831564,7.548918,0.489011,-0.054808,1.213749
26.560,723320,4.242526,1.867477,7.613562,0.494333,0.098441,1.037620
26.580,723340,5.039794,1.628057,7.714118,0.498589,0.225084,1.011546
26.600,723360,4.623203,2.197877,7.972692,0.501782,0.389506,1.052519
26.620,723380,4.845864,2.274492,8.374918,0.705049,0.453892,0.993986
26.640,723400,4.623203,2.178724,9.572019,0.817857,0.745490,0.901931
26.660,723420,16.563087,6.445191,10.685322,1.047198,0.077688,0.347470
26.680,723440,36.047100,12.107478,4.886566,0.971638,0.001596,0.658223
26.700,723460,17.164032,6.909666,8.765172,0.987069,0.755600,1.802797
26.720,723480,13.713987,6.385336,9.955091,1.283456,-0.294258,1.454264
26.740,723500,31.505301,13.041217,7.771579,1.318575,-0.656095,0.901399
26.760,723520,23.530214,9.045294,8.355764,1.280263,0.245304,1.119033
26.780,723540,17.776947,7.448361,8.995016,1.104666,-0.271377,0.920555
26.800,723560,17.214310,7.441179,9.066842,0.795508,-0.022349,0.822646
26.820,723580,16.706739,6.897695,7.603985,0.706113,0.019156,0.930665
26.840,723600,15.550340,5.937620,6.799533,0.920023,-0.052679,1.165327
26.860,723620,12.220005,3.646369,6.993463,1.188207,-0.095780,1.523438
26.880,723640,8.506598,1.381454,7.752425,1.362208,-0.058000,1.740540
26.900,723660,5.497087,-0.304064,8.398860,1.376575,0.067578,1.700100
26.920,723680,4.120421,-1.180341,8.659827,1.222263,0.305433,1.486190
26.940,723700,3.926491,-1.036689,8.611943,1.062629,0.529452,1.180226
26.960,723720,6.703765,-0.428562,8.034941,0.948225,0.269781,0.849252
26.980,723740,7.927202,-0.079009,7.869741,0.805086,0.421433,0.681636
27.000,723760,6.758832,-0.191536,8.094796,0.672058,0.787527,0.657159
27.020,723780,5.743690,1.065420,9.433155,0.686425,0.278295,0.406002
27.040,723800,21.772871,7.467515,10.297462,0.202203,-2.645132,-0.460809
27.060,723820,29.654583,10.960655,7.254431,0.154313,-0.276166,0.099505
27.080,723840,13.000515,5.248090,6.806715,1.371786,1.874101,1.486723
27.100,723860,13.888764,4.831499,10.893618,1.002500,-0.147927,1.300483
27.120,723880,29.135040,8.722076,12.083536,0.836481,-1.610705,0.578406
27.140,723900,23.479937,6.854599,11.932701,0.775288,1.123290,0.992390
27.160,723920,20.362686,4.288015,12.615048,0.452296,0.678444,1.274410
27.180,723940,20.829556,5.580884,12.270284,0.355983,0.185175,0.942904
27.200,723960,20.252552,5.523423,11.204864,0.486883,0.078753,0.748150
27.220,723980,17.767370,4.266468,9.445126,0.479966,0.304368,0.954610
27.240,724000,14.247894,3.325546,8.798691,0.490076,0.179322,1.274410
27.260,724020,10.589554,2.458845,8.190564,0.572553,-0.532113,1.421805
27.280,724040,6.988675,1.939303,8.432379,0.436864,-0.081945,1.499493
27.300,724060,5.425261,0.924162,7.979874,0.847655,-0.163359,1.479805
27.320,724080,3.507505,0.445322,8.779537,0.583727,0.558718,1.507475
27.340,724100,4.319140,0.553061,8.370130,0.278827,0.453892,1.361676
27.360,724120,4.141969,0.924162,8.477868,0.382057,0.383121,1.107326
27.380,724140,4.197036,1.699883,8.568848,0.435800,0.601819,0.943968
27.400,724160,4.129998,2.834735,8.298303,0.700260,1.194061,0.966316
27.420,724180,11.666945,7.410054,11.145009,0.839142,-0.185175,0.685893
27.440,724200,41.544189,13.244724,7.639898,0.683765,-0.617783,0.408662
27.460,724220,20.290859,6.086061,8.973468,1.405309,1.897513,1.508007
27.480,724240,12.397177,6.052542,11.195287,0.895013,-0.474644,1.376575
27.500,724260,24.485500,13.086706,13.845669,-0.109083,-1.101473,0.797105
27.520,724280,26.654648,12.550406,10.618284,1.098280,0.557654,0.648113
27.540,724300,19.318813,8.561666,8.166622,1.224391,0.186772,0.617251
27.560,724320,16.361975,8.283937,9.909601,1.252593,0.058532,0.689618
27.580,724340,13.611036,6.445191,10.316615,1.136060,0.140478,0.829031
27.600,724360,11.326968,3.938462,9.519346,1.023785,0.342148,0.984940
27.620,724380,9.478644,1.754950,9.028535,1.425530,0.145799,1.262703
27.640,724400,6.325481,-0.093374,9.320627,1.385621,0.614058,1.552172
27.660,724420,5.525817,-0.940921,9.191340,1.073271,0.292130,1.539402
27.680,724440,5.576096,-0.454898,8.566454,0.823178,0.183047,1.312722
27.700,724460,5.911284,0.213084,8.451532,0.929069,-0.230405,0.875325
27.720,724480,6.167464,0.076614,9.414001,0.795508,-0.096844,0.508700
27.740,724500,5.396531,-0.486023,9.414001,0.948225,-0.192093,0.214441
27.760,724520,5.248090,-0.368707,9.454702,0.924280,-0.265524,0.038844
27.780,724540,11.049241,4.546589,11.372458,-0.022349,-1.536209,-0.554461
27.800,724560,37.339970,13.965379,7.836222,-1.296758,-2.134304,-0.977491
27.820,724580,17.836803,9.014170,7.110779,0.731655,0.976427,0.916830
27.840,724600,10.034100,6.023811,11.453861,2.099716,-0.214441,1.627732
27.860,724620,24.684219,10.556035,14.815320,0.433672,-0.955142,0.816793
27.880,724640,25.383326,9.979033,13.242330,0.522535,0.103230,0.553397
27.900,724660,20.961235,6.002264,12.126632,0.588517,0.552333,1.159473
27.920,724680,20.506338,6.988675,12.665327,0.640131,0.056936,1.341456
27.940,724700,19.144037,6.991069,11.994950,0.457085,0.242111,1.148831
27.960,724720,16.847998,5.288792,10.098742,1.055179,-0.002661,1.176501
27.980,724740,14.645331,3.727772,9.239224,1.322832,-0.249029,1.372318
28.000,724760,11.142614,3.215413,8.252813,1.005161,-0.293194,1.529824
28.020,724780,7.647080,3.076549,7.613562,0.642260,-0.065982,1.507475
28.040,724800,5.353435,2.382231,7.795521,0.861490,-0.278295,1.344648
28.060,724820,4.065354,1.620875,7.702147,0.725269,0.051083,1.249400
28.080,724840,3.983952,1.273715,7.733272,0.758793,0.089927,1.228116
28.100,724860,3.758897,1.505953,8.286332,0.473580,0.331506,1.250465
28.120,724880,3.251326,2.133234,8.947132,0.551269,0.528920,1.213749
28.140,724900,3.955221,2.825158,8.966286,0.477837,0.836481,1.189804
28.160,724920,4.920084,5.652710,10.905589,0.931197,0.587452,1.184483
28.180,724940,23.436840,9.890448,15.938201,-0.446975,-2.521149,0.891289
28.200,724960,30.717607,10.541670,7.656657,0.907784,0.196350,1.241419
28.220,724980,13.481750,7.848193,10.098742,1.013674,0.368222,1.917734
28.240,725000,15.423448,8.652645,13.965379,1.328685,-0.279359,1.105198
28.260,725020,27.693731,13.232753,12.018892,1.356355,-0.176129,0.626297
28.280,725040,22.639572,10.081984,8.736442,0.838609,0.238386,0.938647
28.300,725060,18.248606,10.419566,9.045294,0.802958,-0.294790,0.755600
28.320,725080,16.431406,9.696517,9.847352,0.964188,0.070239,0.780077
28.340,725100,14.872781,7.223307,8.904037,1.192996,-0.126111,0.858298
28.360,725120,13.280637,4.821922,8.092402,1.178097,-0.048422,0.981748
28.380,725140,10.821792,2.308010,7.996634,1.185015,0.026074,1.249400
28.400,725160,7.517793,0.143652,8.295909,1.141381,0.177193,1.495769
28.420,725180,4.481946,-1.323994,8.394072,0.980151,0.275634,1.618686
28.440,725200,2.664747,-1.359907,8.386889,0.838077,0.257010,1.459053
28.460,725220,4.017470,-0.232238,8.485051,0.776352,-0.049486,1.022188
28.480,725240,6.780379,0.055067,8.305486,0.800829,-0.081945,0.473048
28.500,725260,7.065289,-0.620098,8.281544,0.782738,-0.015963,0.018092
28.520,725280,6.672640,-0.952892,8.834604,0.659820,-0.005321,-0.203799
28.540,725300,10.675745,3.526659,9.567230,0.247964,-0.797105,-0.635875
28.560,725320,31.675289,14.966155,6.145916,0.079817,-2.090670,-0.690682
28.580,725340,16.105795,10.101137,10.656591,0.781141,0.380461,0.941307
28.600,725360,10.122684,7.184999,12.109872,1.237162,-0.177726,1.478209
28.620,725380,23.937229,9.270349,14.635755,1.150427,-0.535305,0.818921
28.640,725400,26.084827,9.651027,12.124237,0.137285,0.392699,0.872665
28.660,725420,22.328325,8.078036,11.365275,0.407598,0.144735,1.444154
28.680,725440,20.913351,8.255207,13.206416,0.448571,0.137285,1.514925
28.700,725460,18.193539,7.783550,12.725182,0.481562,0.197414,1.155216
28.720,725480,16.457743,6.162675,10.606314,0.555526,0.039376,0.957271
28.740,725500,15.069105,4.821922,8.669404,0.718352,-0.209652,1.101473
28.760,725520,11.659762,3.586514,7.860164,0.740169,-0.326185,1.361676
28.780,725540,7.790732,2.681506,7.807492,0.730591,-0.410791,1.438832
28.800,725560,4.829105,1.786075,7.876924,0.682168,-0.104294,1.398392
28.820,725580,3.320758,1.005565,8.010999,0.672058,0.017028,1.321768
28.840,725600,3.746926,0.718261,7.807492,0.656627,0.161762,1.161070
28.860,725620,4.723760,1.098939,7.778761,0.627893,0.200074,1.034427
28.880,725640,4.999093,0.876278,7.817069,0.749215,0.390039,0.933326
28.900,725660,5.592855,0.531513,8.015787,0.843398,0.623104,0.957271
28.920,725680,5.111620,3.306392,9.727641,0.831692,0.719948,1.012078
28.940,725700,22.656330,12.263102,11.733982,1.121161,-0.760389,0.763049
28.960,725720,33.248280,12.773067,8.669404,1.092427,1.177033,1.269089
28.980,725740,12.485762,5.755661,7.031770,1.051987,2.013514,2.583407
29.000,725760,10.000581,8.657434,14.523228,1.470227,-0.234662,1.944339
29.020,725780,26.539726,15.777789,14.774619,1.341456,-0.768371,0.830096
29.040,725800,21.083340,10.362105,9.679757,0.851380,0.542223,1.049858
29.060,725820,17.994820,10.175357,8.784326,0.612994,-0.389506,1.024317
29.080,725840,17.357962,10.785878,9.411607,1.087106,-0.606076,0.997711
29.100,725860,16.235083,8.362947,8.429984,1.518649,-0.498057,1.170116
29.120,725880,13.915100,5.465962,7.639898,1.588356,-0.031927,1.481934
29.140,725900,9.050082,3.021482,8.528147,1.190868,0.737508,1.794816
29.160,725920,5.894525,1.015141,8.580819,1.293034,0.362901,1.796944
29.180,725940,3.021482,-0.660800,8.528147,1.173308,0.383121,1.702228
29.200,725960,2.849100,-1.065420,8.398860,1.112115,0.237322,1.436704
29.220,725980,4.091691,-0.605733,8.022970,1.084445,-0.041505,0.976427
29.240,726000,7.170634,0.088585,8.061277,0.857233,-0.051083,0.497525
29.260,726020,7.850587,-0.057461,8.049306,0.738040,0.081945,0.178258
29.280,726040,7.735666,-0.284910,8.829816,0.885435,0.227744,0.033523
29.300,726060,12.485762,3.718195,11.015722,0.751343,-1.843238,-0.608205
29.320,726080,35.089420,12.275072,5.468357,-0.922683,-1.890596,-0.655031
29.340,726100,15.978902,8.932767,8.465898,1.240887,0.915766,1.330281
29.360,726120,10.328587,7.771579,11.212047,1.718192,-0.224019,1.832064
29.380,726140,23.374592,13.144167,14.166492,0.955142,-2.117808,0.622040
29.400,726160,25.632324,9.126697,12.799402,0.276166,1.403181,0.929601
29.420,726180,21.236568,5.080496,12.856863,0.923747,0.279359,1.559622
29.440,726200,19.891027,6.574478,13.177686,0.390039,0.328313,1.552172
29.460,726220,18.339584,7.759608,12.255919,0.060129,0.857765,1.181290
29.480,726240,16.795324,5.906496,10.503363,1.277070,0.142606,1.076464
29.500,726260,14.202404,3.323152,9.208099,1.104134,0.441121,1.426062
29.520,726280,10.761936,1.376666,7.891289,1.487255,0.472516,1.791091
29.540,726300,5.863400,0.703895,8.154651,1.135528,0.080349,1.867183
29.560,726320,4.029441,0.723049,8.145074,0.678976,0.189432,1.785238
29.580,726340,3.720589,0.895431,7.615956,0.891821,-0.123982,1.627732
29.600,726360,5.030218,1.149217,7.623138,0.556058,0.143670,1.468099
29.620,726380,5.918467,1.628057,7.788338,0.617783,0.155377,1.307933
29.640,726400,6.086061,2.042254,8.030152,0.668866,0.244772,1.276006
29.660,726420,4.429273,3.658340,8.860941,0.655563,0.549140,1.371254
29.680,726440,12.536040,9.296685,12.775460,0.522002,-0.887564,0.996115
29.700,726460,33.126175,11.314998,7.565677,0.205928,0.417708,0.689618
29.720,726480,16.153679,6.028600,5.990293,2.028945,1.053051,1.966688
29.740,726500,9.883265,6.519411,11.915942,1.045069,-0.128239,1.608576
29.760,726520,22.675484,10.759542,15.856798,0.768371,-0.807215,1.038152
29.780,726540,27.111940,11.104307,9.957485,0.987601,0.558718,1.076464
29.800,726560,22.182280,10.737994,8.125920,0.599691,0.249029,0.980151
29.820,726580,19.560627,9.330204,9.962274,1.104134,0.001064,0.573617
29.840,726600,17.202339,7.010222,8.542512,1.247272,-0.166019,0.498057
29.860,726620,15.195998,5.272032,8.499416,1.076996,0.068110,0.760921
29.880,726640,11.645397,3.608062,8.741230,1.129675,0.050019,1.045069
29.900,726660,8.271967,1.300052,8.647857,1.239290,-0.023945,1.299951
29.920,726680,4.975151,0.093374,9.145850,0.874793,0.359708,1.418612
29.940,726700,3.699042,-0.272939,9.105149,0.880646,0.107487,1.345181
29.960,726720,4.209007,0.438139,8.920795,0.818389,-0.037248,1.187675
29.980,726740,6.524199,1.182736,8.853758,0.858830,-0.060661,0.970573
30.000,726760,7.029376,1.043872,9.069236,0.618847,0.262864,0.875857
30.020,726780,6.095637,0.529119,9.162610,0.620975,0.134624,0.841270
30.040,726800,5.092467,0.605733,8.894460,0.436332,0.059597,0.815196
30.060,726820,8.274361,4.496311,11.566388,0.266056,-1.644228,0.235726
30.080,726840,37.102943,11.449073,3.193865,-0.956738,-4.221249,-0.992390
30.100,726860,18.990808,9.131485,8.927979,0.337891,-0.234662,0.432075
30.120,726880,13.287820,5.195418,11.030087,1.176501,-0.387378,1.281327
30.140,726900,23.535002,9.320627,13.666103,0.859362,-0.512957,0.879050
30.160,726920,25.936386,10.261548,12.847286,0.333102,0.433140,0.783802
30.180,726940,21.801601,6.873753,12.478580,0.501250,0.348002,1.302080
30.200,726960,20.831949,7.611167,12.425907,0.368222,0.394828,1.466502
30.220,726980,19.795259,7.225701,12.140997,0.776884,0.196350,1.295162
30.240,727000,17.688362,4.819528,10.910378,0.992390,0.474112,1.480869
30.260,727020,15.298949,3.399766,9.009381,1.076464,0.284680,1.728834
30.280,727040,11.865664,2.966416,8.010999,0.967381,-0.059064,1.947532
30.300,727060,8.583213,3.069367,7.539341,0.960995,-0.149524,1.904963
30.320,727080,5.140351,2.312799,7.498640,1.090299,-0.352259,1.640503
30.340,727100,2.600103,1.412579,7.963115,0.984408,0.038312,1.442025
30.360,727120,3.629610,1.367089,7.893683,0.938647,0.122918,1.232373
30.380,727140,5.564125,1.477222,7.716512,0.905656,0.188368,1.205767
30.400,727160,4.922479,1.759738,7.951144,0.796040,0.539562,1.278667
30.420,727180,3.739743,2.111686,8.508993,0.871068,0.813068,1.271749
30.440,727200,3.543418,2.504335,9.421184,1.091363,1.075932,1.245144
30.460,727220,12.871228,5.968745,11.504139,1.393603,0.824775,0.706645
30.480,727240,38.328773,11.690886,6.665458,1.857073,0.294258,0.763049
30.500,727260,19.582176,6.950367,8.753201,1.159473,1.134464,1.904963
30.520,727280,12.998121,6.011840,11.348516,1.199914,0.093652,1.551108
30.540,727300,27.035326,11.832145,12.876017,1.320171,-0.451231,0.826371
30.560,727320,25.196579,11.621455,10.477027,1.041876,0.573085,0.883307
30.580,727340,18.507179,9.564836,10.005369,1.103069,0.147395,0.551269
30.600,727360,19.053057,9.138668,10.014946,1.119565,0.136221,0.398552
30.620,727380,17.867928,7.659051,8.420407,1.062097,-0.087799,0.514553
30.640,727400,14.654908,5.597643,8.341399,0.868940,0.072899,0.882243
30.660,727420,11.542446,3.378219,7.905654,1.021656,-0.077688,1.188740
30.680,727440,8.178593,1.189918,8.164227,1.169584,-0.100569,1.490980
30.700,727460,5.042189,-0.368707,8.439561,1.156813,-0.145267,1.638907
30.720,727480,3.203442,-0.955287,8.889671,1.044537,0.122918,1.556961
30.740,727500,3.907337,-0.129287,8.798691,0.951417,0.113340,1.220666
30.760,727520,6.770802,0.442927,8.516175,0.982812,0.130900,0.851912
30.780,727540,7.520187,0.411803,7.762002,0.978023,0.271910,0.670994
30.800,727560,6.691794,0.186748,7.647080,0.877454,0.482626,0.703985
30.820,727580,5.748478,0.244209,8.951921,0.871068,0.901931,0.772627
30.840,727600,9.461885,4.446033,11.226412,1.090299,-0.910445,0.071303
30.860,727620,36.566643,12.500127,8.542512,0.775288,-2.330653,-0.792848
30.880,727640,21.013908,8.322245,7.402872,1.337731,1.097216,0.931729
30.900,727660,9.720459,5.714960,11.853693,1.993826,-0.130368,1.614430
30.920,727680,21.660343,9.466674,16.002844,0.225616,-1.186079,0.671526
30.940,727700,26.185385,9.634268,13.472173,0.621507,0.688554,0.498057
30.960,727720,21.674707,6.059724,12.490550,0.692278,0.514553,1.181822
30.980,727740,23.549368,7.345411,11.738770,0.825307,-0.951417,1.442025
31.000,727760,20.262129,7.453150,12.524069,0.538498,0.254350,1.513328
31.020,727780,17.436972,4.776433,11.073183,1.750650,0.062789,1.450539
31.040,727800,14.489709,3.991134,9.531317,1.010482,-0.094716,1.419144
31.060,727820,11.726800,2.801216,9.050082,0.449103,0.058000,1.624540
31.080,727840,6.200983,1.716643,9.394848,0.710902,0.103230,1.746394
31.100,727860,3.890578,1.134852,8.808268,0.727930,-0.499654,1.645824
31.120,727880,3.423708,0.756568,8.554482,0.524663,-0.529984,1.537805
31.140,727900,5.420473,1.920150,8.118738,0.375672,-0.366093,1.330281
31.160,727920,6.639122,2.061408,7.965509,0.293726,-0.055872,1.165859
31.180,727940,5.367800,1.644817,8.185776,0.399084,0.268717,1.117436
31.200,727960,3.936068,1.419762,8.312668,0.516149,0.324589,1.109455
31.220,727980,4.862624,4.412514,9.787497,0.908848,0.124514,0.894481
31.240,728000,25.735273,10.467450,11.116279,-0.029266,-2.059276,0.226148
31.260,728020,27.808653,7.120356,5.901707,0.803490,1.042941,0.879050
31.280,728040,11.911154,5.901707,8.257602,1.851220,0.453892,1.710742
31.300,728060,15.983690,7.630321,11.698070,0.547544,-0.508700,1.373915
31.320,728080,29.910763,12.643779,10.240001,0.282552,-0.309157,1.104134
31.340,728100,22.888569,9.797073,7.831434,0.831160,-0.025009,0.825307
31.360,728120,19.254169,9.394848,9.093178,0.703985,0.158037,0.531048
31.380,728140,17.884687,7.872135,9.167398,0.583195,0.107487,0.461874
31.400,728160,15.947778,6.349423,7.929596,0.423030,0.548076,0.611929
31.420,728180,12.739547,4.015076,8.154651,1.269089,-0.112276,0.949821
31.440,728200,8.997410,1.982399,7.931990,0.752939,0.164423,1.346777
31.460,728220,5.533000,1.022324,8.180987,0.839142,0.252753,1.459053
31.480,728240,5.540183,0.763750,8.394072,0.876922,0.119725,1.320703
31.500,728260,5.243302,0.581791,7.898471,1.089767,0.038844,1.165859
31.520,728280,6.057330,0.694318,8.245630,1.003032,0.062789,1.069014
31.540,728300,6.169858,0.471658,8.674192,1.276006,-0.040973,0.913105
31.560,728320,5.645528,-0.311246,8.810662,1.049326,0.308625,0.911509
31.580,728340,5.363012,-0.179565,8.916007,0.917894,0.288405,0.788591
31.600,728360,9.634268,4.244920,11.549629,0.378864,-0.510828,0.186239
31.620,728380,40.220196,11.717223,8.303091,-1.626136,-3.041023,-0.944500
31.640,728400,19.347544,8.444349,7.984663,0.414516,0.624700,0.908316
31.660,728420,9.761160,5.583278,12.447454,2.287552,0.112276,1.752247
31.680,728440,24.435223,9.674969,16.182409,-0.001064,-1.539402,0.750279
31.700,728460,27.688942,9.545682,13.773843,-0.130368,1.073271,0.875325
31.720,728480,20.453665,5.006276,14.051570,0.879582,0.325653,1.489915
31.740,728500,19.361910,5.978322,13.905523,0.283084,0.334167,1.427126
31.760,728520,18.748993,6.701371,12.543222,0.177726,0.457085,1.054647
31.780,728540,16.445772,5.188235,10.644621,0.821582,0.030330,0.947160
31.800,728560,13.680469,3.725378,9.062054,0.928536,0.016495,1.177033
31.820,728580,10.079589,2.846706,8.408437,0.868408,-0.398552,1.348905
31.840,728600,6.804321,2.348712,7.687782,0.819986,-0.367690,1.411163
31.860,728620,4.577713,1.489193,7.857770,0.791251,-0.246900,1.450007
31.880,728640,4.491522,1.323994,7.757214,0.781141,-0.087266,1.404245
31.900,728660,4.857835,1.508347,7.903260,0.605012,0.009046,1.355823
31.920,728680,4.381389,1.635240,7.936779,0.568828,0.232001,1.293034
31.940,728700,4.362236,1.963245,7.994239,0.599691,0.542755,1.277602
31.960,728720,4.637568,2.269703,7.671022,0.812004,0.729526,1.287180
31.980,728740,4.656722,5.202600,10.532093,1.340924,0.518810,1.061565
32.000,728760,26.846184,9.713276,16.021997,-0.340020,-3.118180,0.330442
32.020,728780,28.802246,9.224859,6.804321,1.268024,0.921087,0.864151
32.040,728800,13.596671,7.280767,9.878476,1.141914,0.275102,1.576650
32.060,728820,20.331560,10.012551,13.249513,1.206299,-0.366093,0.858830
32.080,728840,30.868443,13.826515,9.469068,0.993454,0.055340,0.569893
32.100,728860,20.808006,10.479421,7.953538,0.928536,-0.194753,0.765710
32.120,728880,16.060305,10.031705,9.409213,1.073803,-0.402809,0.711967
32.140,728900,15.203181,8.580819,9.519346,1.070078,-0.059064,0.860426
32.160,728920,13.840880,6.512228,8.322245,1.063161,-0.008514,0.916298
32.180,728940,12.023681,4.197036,7.603985,1.207896,-0.038312,1.089767
32.200,728960,9.236830,1.776498,7.568071,1.390410,-0.147395,1.405841
32.220,728980,6.653487,0.067038,7.817069,1.427126,-0.216570,1.616558
32.240,729000,4.611232,-0.883460,7.951144,1.331878,-0.202735,1.645824
32.260,729020,4.007894,-0.847547,8.169016,1.203107,-0.116533,1.407438
32.280,729040,5.753267,-0.629675,8.286332,1.084445,-0.074496,1.057840
32.300,729060,6.536170,-0.713472,8.226477,0.952482,0.001064,0.836481
32.320,729080,5.916072,-1.055843,8.422802,0.771563,0.067578,0.742829
32.340,729100,6.236896,0.174777,9.538500,0.520406,0.005321,0.614058
32.360,729120,18.667591,5.870583,9.785102,0.125046,-0.932261,-0.127175
32.380,729140,31.864429,11.674128,6.244078,-0.283084,-0.434736,-0.010642
32.400,729160,13.522451,7.486669,8.939949,0.918958,-0.332038,1.343584
32.420,729180,12.744335,5.432444,10.661380,0.968445,-0.649177,1.158409
32.440,729200,28.869284,9.366117,11.025299,0.709306,-0.411323,0.503379
32.460,729220,25.503036,8.307879,10.144233,0.410791,0.450699,1.268556
32.480,729240,22.026655,7.213730,11.566388,0.337359,0.103230,1.727237
32.500,729260,19.979612,7.996634,11.681310,0.353855,0.178258,1.364337
32.520,729280,18.995596,6.959944,10.529699,0.596498,0.272974,0.965784
32.540,729300,17.796101,5.032612,8.774749,0.710370,0.230937,1.035491
32.560,729320,15.409082,3.715801,7.457938,0.735912,-0.189432,1.324960
32.580,729340,11.468226,3.224990,7.259220,0.725802,-0.421433,1.601659
32.600,729360,6.919243,2.384625,7.694964,0.729526,-0.351194,1.689990
32.620,729380,4.733337,1.039083,7.809886,0.942904,-0.176129,1.642632
32.640,729400,4.343082,0.119710,7.905654,0.885435,0.059597,1.659127
32.660,729420,5.116409,-0.239420,7.795521,0.732719,0.334699,1.626668
32.680,729440,4.960786,0.445322,7.989451,0.763582,1.346245,1.724045
32.700,729460,4.086902,1.244985,7.541735,0.570957,1.308997,1.378172
32.720,729480,3.555390,2.027889,7.999028,1.876761,1.888468,1.218538
32.740,729500,4.376601,5.054160,9.643845,0.904059,1.124354,0.726334
32.760,729520,27.811047,12.071565,13.673285,-0.164423,-1.639439,0.202735
32.780,729540,30.475794,9.351752,8.671799,1.112115,2.069918,1.181290
32.800,729560,13.534422,6.009446,7.513005,2.826582,1.578246,2.204542
32.820,729580,15.784972,9.636662,14.305355,1.138189,-0.818921,1.412227
32.840,729600,33.664871,14.654908,10.321404,0.647581,0.556590,1.031234
32.860,729620,22.182280,9.562442,7.860164,1.919330,0.366093,0.796040
32.880,729640,18.100164,8.501810,9.047688,1.476612,-0.200606,0.598095
32.900,729660,17.166426,6.811504,9.574412,1.588888,-0.238386,0.725269
32.920,729680,16.737864,5.348647,8.420407,1.160538,0.442718,1.115308
32.940,729700,12.490550,3.311181,7.694964,1.175437,0.918426,1.478209
32.960,729720,7.855376,1.213860,7.809886,1.063693,0.902463,1.777256
32.980,729740,5.011064,0.086191,7.982268,1.431915,0.302772,1.719256
33.000,729760,3.220201,-0.359130,8.054094,1.971477,-0.163891,1.448411
33.020,729780,3.550601,-0.174777,8.425196,1.083913,0.415048,1.116904
33.040,729800,6.162675,-0.052672,8.911219,1.112647,0.291066,0.746022
33.060,729820,6.689400,-0.263362,8.942344,1.015803,0.508700,0.498057
33.080,729840,6.428432,-0.763750,9.272743,1.178097,0.258075,0.354387
33.100,729860,6.418855,-0.854730,8.930372,0.713563,0.359708,0.367690
33.120,729880,7.639898,2.545036,10.500969,1.006757,-0.626297,0.068110
33.140,729900,34.091038,12.061988,13.869611,-1.082317,-4.409085,-0.962060
33.160,729920,27.985825,12.366052,10.491392,0.843931,1.018463,0.441653
33.180,729940,10.151415,4.094085,13.515268,2.789866,0.602351,1.982651
33.200,729960,18.899828,6.754043,17.484856,1.282391,-2.334378,1.169584
33.220,729980,28.933928,12.358870,16.060305,0.600755,-0.549140,0.709306
33.240,730000,19.998766,7.225701,14.817715,0.340020,0.898738,1.265364
33.260,730020,18.363527,6.471527,15.217546,-0.669398,1.031766,1.239290
33.280,730040,21.387403,8.020576,12.480973,0.289469,-0.098973,0.980151
33.300,730060,18.188751,5.626374,9.739613,1.202042,0.000532,1.405841
33.320,730080,13.737929,3.871424,7.637504,1.141914,-0.629489,1.840577
33.340,730100,8.963891,3.356671,7.065289,0.839142,-0.299579,1.968817
33.360,730120,6.813898,2.329558,9.157822,0.407598,0.758260,1.949661
33.380,730140,2.468422,0.876278,9.148245,1.704889,-0.891821,1.471823
33.400,730160,2.580950,-0.050278,8.003817,0.475709,0.244772,1.327621
33.420,730180,4.967968,0.256180,7.773973,0.702921,-0.103230,1.157877
33.440,730200,5.786786,1.532289,7.422025,0.311818,0.108551,1.053583
33.460,730220,5.200206,2.212242,7.879318,0.209652,0.449635,0.851912
33.480,730240,4.118027,2.408567,8.058883,0.352259,0.705581,0.707178
33.500,730260,4.654328,4.955997,9.849746,1.388282,-0.014899,0.482094
33.520,730280,26.503813,10.781090,14.853627,-0.471984,-2.756875,0.267653
33.540,730300,28.795063,8.975863,6.617573,0.818921,0.384185,0.950353
33.560,730320,13.110648,7.012617,7.852982,1.026977,-0.106423,1.514392
33.580,730340,18.085800,10.031705,13.029245,2.336506,0.028202,1.124354
33.600,730360,31.064768,14.109031,8.075643,-0.429415,-0.321396,0.613526
33.620,730380,22.701820,10.295067,6.299145,0.399617,0.346937,0.775288
33.640,730400,17.934965,10.426748,8.995016,0.679508,-0.348534,0.634278
33.660,730420,17.973272,8.939949,9.143456,0.977491,-0.320864,0.744958
33.680,730440,16.309301,6.993463,8.197746,0.845527,-0.151652,0.821582
33.700,730460,13.682862,4.443638,7.752425,0.926940,-0.142074,1.038684
33.720,730480,10.247183,2.331953,7.829040,0.976427,-0.020220,1.432979
33.740,730500,6.631939,1.027112,7.917625,0.954610,0.097909,1.637843
33.760,730520,4.225766,-0.244209,8.257602,1.079656,0.073432,1.585163
33.780,730540,3.045424,-0.928950,8.542512,1.170116,0.150056,1.375511
33.800,730560,5.025429,-0.663194,8.396465,1.107858,0.062257,1.081785
33.820,730580,6.768408,-0.402226,8.271967,1.019528,0.005321,0.871600
33.840,730600,6.624756,-0.395043,8.295909,0.831692,0.218166,0.769967
33.860,730620,6.193800,-0.445322,8.640674,0.713031,0.205395,0.678444
33.880,730640,6.210559,0.438139,9.555259,0.549140,0.139413,0.590113
33.900,730660,18.459295,5.872977,10.335769,0.406534,-1.144042,-0.100037
33.920,730680,34.651279,14.015656,6.030994,0.005321,-0.763049,-0.102698
33.940,730700,13.460202,7.654263,10.378864,0.834352,0.105358,1.401052
33.960,730720,13.594277,5.451597,11.956643,1.024317,-0.682700,1.338263
33.980,730740,30.016108,9.588778,11.717223,0.980151,-0.716756,0.987601
34.000,730760,24.054544,7.759608,12.531252,0.119193,0.784334,1.528759
34.020,730780,20.199881,6.193800,13.539210,0.380993,-0.038844,1.543126
34.040,730800,21.100100,7.374141,13.055582,0.317139,0.037780,1.110519
34.060,730820,20.245369,6.936002,10.922348,0.473580,-0.071303,0.841802
34.080,730840,17.618931,4.635174,8.975863,0.632682,-0.178790,1.150959
34.100,730860,13.476961,3.136404,7.845799,0.675251,-0.549672,1.466502
34.120,730880,9.299079,2.327164,7.340622,0.656627,-0.560315,1.654338
34.140,730900,5.116409,1.565808,7.532158,0.646517,-0.582131,1.602191
34.160,730920,2.525883,0.814029,7.747637,0.667801,-0.166551,1.403713
34.180,730940,2.813187,0.488417,7.809886,0.615122,0.214973,1.195125
34.200,730960,5.286397,0.469264,7.580042,0.590113,0.354919,1.165859
34.220,730980,5.784391,1.199495,7.292738,0.509764,0.586388,1.190868
34.240,731000,4.869806,2.090138,7.546524,0.533709,0.991326,1.134996
34.260,731020,3.943250,2.940080,9.327810,0.733783,2.209864,1.260575
34.280,731040,9.928755,6.687006,10.187328,1.868779,1.225455,0.644920
34.300,731060,33.569103,12.502522,10.070012,0.627361,-0.348534,0.237854
34.320,731080,22.598869,7.510611,7.910442,1.145106,2.144946,1.539934
34.340,731100,10.845734,6.509834,12.042834,2.653113,1.718724,1.836853
34.360,731120,23.776817,12.729970,14.906300,0.692811,-0.891289,1.042409
34.380,731140,27.729645,12.816162,10.759542,1.433511,0.469323,0.828499
34.400,731160,20.834343,10.467450,9.775525,0.786995,0.544351,0.677911
34.420,731180,18.612524,10.204087,10.965444,0.931197,0.199010,0.479433
34.440,731200,17.743429,8.092402,10.163386,0.838609,0.358112,0.593838
34.460,731220,16.510414,5.810728,8.597578,1.338263,0.110679,0.841270
34.480,731240,12.057199,3.287239,7.697359,1.422337,-0.038844,1.253657
34.500,731260,6.995857,1.331176,8.406042,1.207896,0.851912,1.691054
34.520,731280,4.053383,-0.035913,8.963891,1.346777,-0.124514,1.591017
34.540,731300,2.827552,-0.478840,9.109938,1.190868,0.206460,1.381364
