Time(s),Time(ms),AccelX,AccelY,AccelZ,GyroX,GyroY,GyroZ
0.000,945860,8.920795,5.961562,6.880936,-0.277121,-0.501083,0.214902
0.020,945880,8.815451,7.465121,9.351752,0.038104,-1.000966,0.103121
0.040,945900,10.639832,7.220912,11.401189,0.219165,-0.880392,-0.144423
0.060,945920,12.248735,8.121132,12.593501,-0.086600,-0.597809,-0.244879
0.080,945940,10.625467,8.714894,12.129025,-0.404490,-0.144156,-0.357326
0.100,945960,8.695741,7.987057,11.037270,-0.477767,0.114046,-0.514273
0.120,945980,8.757990,5.937620,9.136273,-0.456583,0.206242,-0.550245
0.140,946000,8.020576,4.817134,7.311892,-0.568498,0.243014,-0.346268
0.160,946020,6.445191,4.146757,5.937620,-0.539054,0.166273,-0.119375
0.180,946040,4.232949,3.648763,5.137957,-0.493622,0.293908,0.068214
0.200,946060,2.624045,3.270479,4.510676,-0.237152,0.214902,0.221164
0.220,946080,2.351106,2.691083,3.892972,-0.128302,0.273923,0.365720
0.240,946100,2.346318,2.044648,3.256114,0.053292,0.154681,0.474170
0.260,946120,2.734178,2.044648,3.112462,0.129634,-0.021717,0.533058
0.280,946140,2.911349,1.642422,2.810793,0.167472,-0.141225,0.631916
0.300,946160,2.681506,1.350330,2.379837,0.210639,-0.329481,0.844686
0.320,946180,2.269703,2.810793,3.567361,0.222096,-0.553842,1.022949
0.340,946200,7.709330,6.090849,6.924031,0.271126,-0.811911,0.862273
0.360,946220,9.816227,5.453991,5.832275,0.332678,-0.278453,0.705992
0.380,946240,9.294291,6.507440,7.474698,0.312161,-0.570096,0.856144
0.400,946260,12.287044,7.699753,8.954314,0.608734,-0.617660,0.627652
0.420,946280,16.261417,11.042058,10.927136,0.472171,-0.274856,0.412617
0.440,946300,16.079458,11.324574,11.506534,0.498551,0.114579,0.070879
0.460,946320,13.713987,10.524911,10.769119,0.414482,0.479899,-0.301236
0.480,946340,12.282255,8.552089,8.743625,0.336009,0.635913,-0.668554
0.500,946360,9.959879,5.975927,6.603208,0.249009,0.634980,-0.797922
0.520,946380,6.813898,3.500323,5.319916,0.125504,0.419279,-0.741432
0.540,946400,4.582502,2.451663,5.990293,-0.108983,0.079672,-0.568764
0.560,946420,2.834735,1.982399,3.634398,-0.510276,0.277121,-0.337874
0.580,946440,2.073379,1.656788,2.384625,-0.525064,0.054758,-0.079939
0.600,946460,2.355895,1.628057,1.853112,-0.637112,-0.068348,0.149352
0.620,946480,2.346318,1.508347,1.115698,-0.473504,-0.486960,0.255271
0.640,946500,1.723825,1.599327,2.044648,-0.358126,-0.745029,0.276721
0.660,946520,0.675165,1.470040,2.442086,-0.308164,-0.700263,0.220897
0.680,946540,0.062249,0.876278,2.614468,-0.212504,-0.737968,0.178930
0.700,946560,2.360683,2.336741,4.596867,-0.375046,-1.000700,0.080472
0.720,946580,11.573571,5.693412,8.690952,-0.584885,-1.512175,-0.417813
0.740,946600,13.407530,5.152322,6.971915,-0.671485,-0.733838,-0.349599
0.760,946620,10.687716,7.302315,9.141062,-0.682410,-0.664957,0.346135
0.780,946640,13.532028,10.060435,10.907983,-0.674949,-0.469107,-0.017320
0.800,946660,16.481684,10.496181,11.568783,-0.704926,-0.175998,-0.478567
0.820,946680,14.489709,8.274361,11.559206,-0.288579,0.399427,-0.339340
0.840,946700,12.990938,6.818686,10.788273,-0.326417,0.692403,-0.197315
0.860,946720,11.808203,5.477933,7.996634,-0.412884,0.822703,-0.176531
0.880,946740,9.897630,4.639963,6.081272,-0.450721,0.631783,-0.173600
0.900,946760,7.709330,3.873818,4.821922,-0.257270,0.249142,-0.191853
0.920,946780,5.463568,2.911349,4.237737,-0.372381,0.129101,-0.174133
0.940,946800,3.739743,1.556231,2.873042,-0.367851,-0.108983,-0.025181
0.960,946820,2.408567,1.010353,2.336741,-0.341072,-0.303101,0.244213
0.980,946840,1.455675,0.895431,2.126051,-0.211038,-0.430737,0.414349
1.000,946860,0.957681,0.876278,2.470816,-0.072611,-0.428605,0.464844
1.020,946880,0.799663,0.957681,2.533065,-0.166006,-0.313227,0.553443
1.040,946900,0.881066,1.345541,2.054225,-0.108184,-0.278453,0.684675
1.060,946920,1.177947,2.035071,2.695871,0.058489,-0.422610,0.805250
1.080,946940,7.048530,5.300763,6.502652,0.011858,-0.816441,0.692270
1.100,946960,16.706739,5.487510,5.238513,0.268461,-0.695201,0.385704
1.120,946980,11.137826,5.367800,5.300763,0.293775,-0.590081,0.931153
1.140,947000,11.918336,6.258443,8.657434,0.606602,-1.148853,0.625920
1.160,947020,18.540697,9.251195,10.984597,0.271658,-0.635646,0.226227
1.180,947040,18.325220,9.935937,9.911995,0.104187,0.180528,0.039037
1.200,947060,13.713987,9.423578,9.816227,0.211038,0.489758,-0.291243
1.220,947080,12.004527,7.876924,8.192958,0.265796,0.721181,-0.793259
1.240,947100,9.557653,5.377377,5.612009,0.318156,0.920228,-0.977917
1.260,947120,7.910442,3.217807,4.122815,0.332279,0.960730,-0.823902
1.280,947140,6.191406,1.771709,3.768473,0.371982,0.505879,-0.499484
1.300,947160,4.520253,1.096544,2.403779,-0.180395,0.525064,-0.146155
1.320,947180,3.241749,0.694318,1.417367,-0.222096,0.016521,0.111648
1.340,947200,3.260903,0.909797,1.221043,-0.303368,-0.328548,0.270193
1.360,947220,2.738967,0.952892,0.938527,-0.211438,-0.549579,0.314559
1.380,947240,2.188300,1.244985,1.623269,-0.107118,-0.767012,0.305899
1.400,947260,0.981623,0.737414,1.924938,-0.019052,-0.869334,0.192519
1.420,947280,0.780510,0.186748,2.418144,-0.067415,-0.861473,0.086467
1.440,947300,8.207323,3.347094,6.004658,-0.266329,-1.257303,-0.192119
1.460,947320,18.239029,4.141969,6.828263,-0.500150,-1.220798,-0.285648
1.480,947340,10.137050,4.683059,6.828263,-0.695334,-0.733438,0.300969
1.500,947360,15.102624,8.106767,8.647857,-0.657896,-1.051594,0.064750
1.520,947380,18.789696,9.825804,10.189722,-0.548113,-0.424475,-0.272858
1.540,947400,15.629349,8.781932,10.620679,-0.466443,0.318556,-0.362389
1.560,947420,12.569559,7.264008,10.122684,-0.545848,0.988443,-0.437398
1.580,947440,12.239159,6.138733,7.785944,-0.525864,1.248510,-0.600340
1.600,947460,10.635044,4.424485,6.095637,-0.443260,1.140459,-0.745829
1.620,947480,7.896077,3.078943,4.721366,-0.342538,0.786064,-0.696666
1.640,947500,5.291186,2.523489,3.945644,-0.500683,0.798322,-0.498951
1.660,947520,3.232172,1.771709,2.839523,-0.208640,0.337475,-0.251008
1.680,947540,2.346318,1.455675,1.958457,-0.229691,0.342671,0.068081
1.700,947560,1.168370,0.991199,1.848324,-0.075009,0.172534,0.292975
1.720,947580,1.599327,1.216254,2.331953,0.007861,0.022916,0.432202
1.740,947600,1.934515,1.010353,1.963245,0.116577,-0.089665,0.555041
1.760,947620,0.718261,0.818817,1.833959,0.187723,-0.102721,0.689072
1.780,947640,0.191536,1.316811,2.600103,0.257270,-0.230224,0.733571
1.800,947660,8.307879,5.645528,6.536170,0.229691,-0.773274,0.437665
1.820,947680,18.488026,4.395754,5.233725,0.435000,-0.496819,0.177331
1.840,947700,9.595961,4.228160,4.932055,0.212104,-0.329348,0.749825
1.860,947720,13.120225,6.885724,8.389283,0.308564,-0.984845,0.391966
1.880,947740,20.101717,9.998186,9.969456,0.216767,-0.468441,0.076075
1.900,947760,17.745823,9.595961,10.251971,0.119242,0.268594,-0.023982
1.920,947780,12.411542,9.327810,10.113108,0.034107,0.686674,-0.433135
1.940,947800,11.348516,8.499416,8.523358,0.091796,0.994704,-0.947940
1.960,947820,9.864111,5.789180,5.884948,0.115511,1.300204,-1.082371
1.980,947840,7.565677,3.347094,4.098873,0.150418,1.049729,-0.935150
2.000,947860,6.373365,2.202666,4.271256,0.072744,0.560904,-0.658695
2.020,947880,4.376601,1.058237,2.997540,-0.120041,0.412084,-0.337208
2.040,947900,2.236184,0.474052,2.360683,-0.227026,0.022916,-0.079672
2.060,947920,1.733402,0.646434,1.656788,-0.340139,-0.248609,0.139227
2.080,947940,1.886631,1.120486,1.795651,-0.316025,-0.593945,0.200113
2.100,947960,2.384625,1.508347,2.116474,-0.313227,-0.801786,0.184525
2.120,947980,1.230620,1.063026,2.762909,-0.329081,-0.824968,0.185591
2.140,948000,1.896208,2.446874,4.759673,-0.460714,-0.944610,0.095260
2.160,948020,12.813767,5.497087,7.733272,-0.619925,-1.343904,-0.388769
2.180,948040,13.464991,3.648763,5.023035,-0.546115,-0.734770,-0.195184
2.200,948060,9.859323,5.018247,7.551312,-0.673217,-0.985778,0.300303
2.220,948080,15.313314,8.628703,9.265560,-0.662559,-0.931420,0.002798
2.240,948100,17.587805,10.046070,11.362882,-0.463778,-0.234354,-0.292576
2.260,948120,13.417107,8.762778,11.650186,-0.361456,0.567299,-0.304567
2.280,948140,13.450625,7.412448,10.462662,-0.382107,1.063718,-0.469640
2.300,948160,14.389153,5.635951,7.383718,-0.279919,1.188289,-0.450188
2.320,948180,11.405977,4.017470,6.167464,-0.182660,0.996969,-0.231556
2.340,948200,7.268796,2.815581,4.927267,-0.081937,0.655098,-0.132432
2.360,948220,4.587290,2.135628,4.036624,-0.162542,0.529594,-0.100190
2.380,948240,2.533065,1.187524,2.523489,-0.192119,0.367985,-0.079939
2.400,948260,1.704672,0.660800,1.915361,-0.154015,-0.019585,0.001066
2.420,948280,1.029507,0.330400,1.470040,-0.285781,0.067282,0.154948
2.440,948300,0.876278,0.756568,1.944092,-0.069147,-0.137628,0.261666
2.460,948320,0.943315,1.149217,2.183512,0.061553,-0.093129,0.322819
2.480,948340,0.689530,1.331176,2.231396,0.134697,-0.110315,0.420211
2.500,948360,1.211466,1.953669,2.762909,0.142957,-0.168005,0.477101
2.520,948380,6.603208,5.171476,6.617573,0.100989,-0.553975,0.321753
2.540,948400,16.472107,5.449203,6.062119,0.205709,-0.387570,-0.007194
2.560,948420,11.176133,5.085284,5.808333,0.215035,-0.317224,0.676282
2.580,948440,13.996503,6.880936,9.327810,0.285914,-0.764481,0.589948
2.600,948460,18.535910,9.586384,10.050858,0.018786,-0.231956,0.290444
2.620,948480,17.683575,10.050858,9.715671,0.149752,0.192386,0.127236
2.640,948500,14.532804,9.682152,9.639056,0.310695,0.506545,-0.231023
2.660,948520,12.689269,8.169016,8.413225,0.399827,0.622856,-0.633515
2.680,948540,10.687716,5.822699,6.382942,0.467642,0.758485,-0.687873
2.700,948560,8.078036,3.677494,4.783615,0.527196,0.673750,-0.516005
2.720,948580,5.382165,2.398990,4.314352,0.124971,0.795257,-0.270726
2.740,948600,3.160346,1.216254,2.815581,0.049429,0.549712,-0.071678
2.760,948620,2.585738,0.732626,2.068590,0.030643,0.209972,0.114312
2.780,948640,2.466028,0.536301,1.015141,-0.034107,-0.048896,0.287646
2.800,948660,2.422932,1.120486,0.833182,-0.023982,-0.288979,0.375712
2.820,948680,2.025495,1.939303,1.862689,0.117510,-0.547181,0.303101
2.840,948700,1.297657,1.096544,2.308010,0.171868,-0.633515,0.115112
2.860,948720,0.914585,0.335188,2.868254,0.067548,-0.816175,-0.006928
2.880,948740,8.508993,3.466804,6.545747,-0.235686,-1.313260,-0.254605
2.900,948760,15.270219,4.347870,6.258443,-0.370250,-0.974986,-0.384905
2.920,948780,10.342952,5.760449,6.445191,-0.632182,-0.691737,0.236752
2.940,948800,13.747506,8.734048,8.427590,-0.454319,-0.922760,0.136429
2.960,948820,17.918205,10.251971,10.012551,-0.368651,-0.591547,-0.173867
2.980,948840,17.156849,9.141062,10.534488,-0.298438,0.016521,-0.140959
3.000,948860,13.728353,7.881712,10.261548,-0.333345,0.583686,-0.055424
3.020,948880,13.359646,7.067683,8.590396,-0.384239,0.983779,-0.175199
3.040,948900,11.875240,5.219360,6.354211,-0.310029,1.033475,-0.273790
3.060,948920,8.997410,3.605668,4.941632,-0.302035,0.820838,-0.244080
3.080,948940,6.435614,2.705448,4.103662,-0.101789,0.319755,-0.166139
3.100,948960,4.194642,1.671153,2.609680,-0.230090,0.376245,0.042368
3.120,948980,1.498770,0.866701,1.192312,-0.015855,0.077807,0.250874
3.140,949000,0.497994,0.828394,1.647211,-0.164807,0.157080,0.418746
3.160,949020,0.675165,0.689530,1.766921,0.090331,-0.082737,0.441795
3.180,949040,1.690306,1.086968,2.154782,0.046231,0.022250,0.567432
3.200,949060,1.048660,1.197101,1.738190,0.146554,0.045832,0.688672
3.220,949080,0.047884,1.747767,2.446874,0.204643,-0.076208,0.704394
3.240,949100,5.564125,5.142745,5.722142,0.263132,-0.412617,0.478966
3.260,949120,16.433800,4.232949,5.693412,0.597276,-0.360923,0.181061
3.280,949140,10.888829,4.453215,3.964798,0.225294,-0.135096,0.786198
3.300,949160,11.817780,6.627151,7.484274,0.411418,-0.834427,0.679213
3.320,949180,17.434576,8.714894,9.232041,0.439130,-0.478300,0.268328
3.340,949200,18.861521,9.797073,9.935937,0.295640,0.025847,0.137495
3.360,949220,15.241488,9.935937,9.533711,0.136296,0.482963,-0.218632
3.380,949240,13.072341,8.992621,8.269572,0.121773,0.745296,-0.716518
3.400,949260,11.765107,6.469133,5.894525,0.236885,0.851481,-0.931286
3.420,949280,9.610326,3.960010,4.098873,0.333078,0.678547,-0.717983
3.440,949300,6.919243,2.518700,3.696647,0.223562,0.400760,-0.339207
3.460,949320,4.343082,1.426944,3.380613,0.027712,0.246744,-0.047031
3.480,949340,2.480393,0.660800,2.470816,-0.035306,-0.033708,0.146288
3.500,949360,1.862689,0.095768,1.312023,-0.094994,-0.234221,0.336276
3.520,949380,1.110910,0.397437,0.972046,-0.229424,-0.337608,0.494421
3.540,949400,1.647211,1.379060,2.039860,-0.213836,-0.597409,0.398761
3.560,949420,1.786075,1.110910,2.322376,-0.170003,-0.629518,0.164407
3.580,949440,0.837971,0.679953,2.585738,-0.255937,-0.620191,0.044899
3.600,949460,9.006987,3.543418,6.081272,-0.534257,-1.225994,-0.280052
3.620,949480,17.731459,2.949656,5.477933,-0.708257,-1.222263,-0.373181
3.640,949500,9.854534,4.089296,6.268020,-0.830297,-0.991507,0.351864
3.660,949520,12.698846,7.019799,8.068460,-0.775006,-0.994438,0.311228
3.680,949540,18.219875,9.040505,9.849746,-0.738900,-0.614063,-0.062885
3.700,949560,17.678785,8.777143,9.830592,-0.751158,-0.038237,-0.143490
3.720,949580,15.571888,7.072472,9.629479,-0.482031,0.500417,-0.141625
3.740,949600,14.657303,5.870583,7.623138,-0.355594,0.788862,-0.230623
3.760,949620,12.382812,4.616021,6.100426,-0.266862,0.687873,-0.274057
3.780,949640,9.308656,3.366248,4.635174,-0.259135,0.745829,-0.251274
3.800,949660,6.311116,2.207454,3.131616,0.091263,0.385438,-0.238084
3.820,949680,4.539406,1.374272,2.513912,-0.264464,0.636579,-0.116711
3.840,949700,3.624821,0.608127,1.546654,-0.247410,0.262865,0.013989
3.860,949720,2.288857,0.033519,0.708684,-0.242614,0.014789,0.215302
3.880,949740,0.086191,0.129287,1.460463,-0.128701,-0.158678,0.363322
3.900,949760,-0.177171,0.986411,2.403779,-0.111248,0.003064,0.349998
3.920,949780,0.426168,1.268927,2.193089,-0.020651,0.185191,0.297772
3.940,949800,0.804452,1.498770,2.197877,0.056623,0.212770,0.319222
3.960,949820,5.066131,3.596091,5.377377,0.079939,0.025714,0.105652
3.980,949840,14.733917,3.940856,5.200206,0.040502,0.012790,-0.130700
4.000,949860,10.960655,4.826711,4.922479,-0.007594,-0.118709,0.417680
4.020,949880,12.100295,5.923255,7.196970,0.229824,-0.259002,0.351997
4.040,949900,16.927006,8.140285,9.864111,0.231822,0.012923,0.143623
4.060,949920,18.468872,9.313444,10.500969,0.075409,0.243280,0.020917
4.080,949940,15.495274,9.514558,10.079589,0.090064,0.624055,-0.236619
4.100,949960,14.858416,8.523358,8.944737,0.195583,0.797256,-0.565833
4.120,949980,13.905523,6.770802,6.780379,0.288046,0.726243,-0.653099
4.140,950000,10.984597,4.898537,5.252879,0.397828,0.478567,-0.492556
4.160,950020,7.015011,3.102885,4.232949,0.483896,0.261133,-0.263265
4.180,950040,4.189853,1.757344,3.385401,0.340406,0.165074,-0.082337
4.200,950060,2.667141,0.483629,2.375048,0.021184,0.088199,0.037305
4.220,950080,1.403002,-0.129287,1.369483,-0.169204,-0.088199,0.165873
4.240,950100,1.398214,0.090980,1.297657,-0.207441,-0.422210,0.203977
4.260,950120,2.513912,0.866701,1.671153,-0.340406,-0.454985,0.207574
4.280,950140,2.552219,1.096544,1.948880,-0.266862,-0.505479,0.171868
4.300,950160,1.173159,0.474052,2.078167,-0.194384,-0.653099,0.161476
4.320,950180,4.223372,1.948880,3.936068,-0.303368,-0.873864,-0.052360
4.340,950200,15.543158,4.218584,5.904101,-0.186391,-1.212937,-0.400760
4.360,950220,13.158532,3.457227,5.803545,-0.324418,-0.907704,0.094727
4.380,950240,11.238382,5.899313,7.168240,-0.324152,-0.855877,0.238750
4.400,950260,18.018763,8.604761,9.476251,-0.286980,-0.823103,-0.089931
4.420,950280,20.140024,8.844181,10.079589,-0.376511,-0.276988,-0.163475
4.440,950300,15.907076,7.484274,9.969456,-0.393832,0.179329,-0.060887
4.460,950320,13.469779,6.574478,8.786720,-0.429404,0.623922,-0.112181
4.480,950340,12.354081,5.525817,6.464345,-0.300303,0.763282,-0.231289
4.500,950360,9.782708,4.333505,5.104438,-0.262599,0.836825,-0.282583
4.520,950380,6.847417,3.169923,3.873818,-0.106185,0.668288,-0.285381
4.540,950400,4.553771,1.991976,3.165135,-0.107518,0.621790,-0.191453
4.560,950420,2.657564,1.053449,1.905785,-0.017320,0.483230,-0.060753
4.580,950440,2.370260,0.656011,1.766921,-0.018919,0.313493,0.092196
4.600,950460,1.709460,-0.191536,1.240196,0.156147,0.095260,0.300436
4.620,950480,1.283292,0.114922,1.896208,0.184925,-0.116311,0.516804
4.640,950500,1.589750,0.617704,1.886631,0.071412,0.028645,0.634847
4.660,950520,0.387861,0.928950,1.953669,0.120441,0.027712,0.685608
4.680,950540,0.766145,1.723825,2.585738,0.178663,-0.079939,0.654698
4.700,950560,11.779472,5.813122,6.445191,0.307231,-0.711322,0.300436
4.720,950580,18.914194,4.094085,4.812346,0.425541,-0.220631,0.330280
4.740,950600,9.988609,4.735731,5.171476,0.259401,-0.285781,0.737835
4.760,950620,15.083470,6.866570,8.662222,0.342271,-0.927289,0.367185
4.780,950640,22.328325,8.853758,9.773131,0.295907,-0.402092,0.213037
4.800,950660,17.908628,8.552089,9.279925,0.177730,0.111248,0.136162
4.820,950680,13.704411,8.705317,8.259995,0.181727,0.323219,-0.334144
4.840,950700,13.460202,7.603985,6.435614,0.269527,0.545049,-0.736636
4.860,950720,11.066000,5.051765,4.750096,0.385838,0.653233,-0.723446
4.880,950740,7.101202,3.026271,3.409343,0.426606,0.581421,-0.545049
4.900,950760,4.165911,1.810017,2.968810,0.210772,0.603937,-0.379975
4.920,950780,2.365471,0.608127,1.939303,0.121773,0.339873,-0.261000
4.940,950800,2.173935,-0.043096,1.259350,-0.281118,0.387037,-0.055957
4.960,950820,2.097321,-0.043096,0.521936,-0.222230,-0.147087,0.160144
4.980,950840,3.136404,0.684742,1.508347,-0.255271,-0.466842,0.330147
5.000,950860,2.844312,0.809240,1.843535,-0.268194,-0.524531,0.397296
5.020,950880,0.555455,0.593762,2.126051,-0.318156,-0.482164,0.374247
5.040,950900,1.417367,1.819593,3.524265,-0.393432,-0.611265,0.131366
5.060,950920,13.690045,4.984728,6.770802,-0.447923,-1.244779,-0.410752
5.080,950940,15.207970,3.677494,5.425261,-0.419145,-0.501616,-0.283383
5.100,950960,11.836933,4.754885,7.000646,-0.378510,-0.625521,0.040502
5.120,950980,19.393034,8.006210,8.690952,-0.571429,-0.783799,-0.208907
5.140,951000,21.332336,8.614338,9.236830,-0.417014,-0.375046,-0.244080
5.160,951020,16.017210,7.546524,9.562442,-0.395031,0.063418,-0.077541
5.180,951040,13.369223,6.258443,8.657434,-0.450988,0.538387,-0.237951
5.200,951060,12.018892,5.046977,6.507440,-0.464977,0.810845,-0.336276
5.220,951080,10.247183,4.070143,4.922479,-0.454851,0.858675,-0.343603
5.240,951100,7.967903,3.145981,3.428497,-0.420211,0.704926,-0.307897
5.260,951120,5.908890,2.585738,3.519476,-0.306165,0.281651,-0.225694
5.280,951140,3.318364,1.163582,1.446098,-0.363721,0.339340,-0.082337
5.300,951160,1.465251,0.703895,1.312023,-0.243813,0.038371,0.128168
5.320,951180,0.943315,0.517148,1.450886,-0.232222,-0.094594,0.268061
5.340,951200,0.746991,0.397437,1.824382,-0.167338,-0.120441,0.308564
5.360,951220,1.489193,0.560243,2.106898,-0.216501,-0.195583,0.363988
5.380,951240,1.187524,0.876278,1.709460,-0.251541,-0.135763,0.500683
5.400,951260,0.775721,1.829170,2.288857,-0.085801,-0.207308,0.555574
5.420,951280,9.715671,5.367800,7.920019,-0.464178,-0.824435,0.072744
5.440,951300,19.244593,4.903325,3.797204,0.571162,-0.367052,0.148953
5.460,951320,10.654198,4.888960,6.794744,-0.713853,-0.750891,0.590881
5.480,951340,15.461755,6.679823,8.657434,-0.211571,-0.646704,0.217567
5.500,951360,22.208614,9.572019,9.715671,-0.305899,-0.384106,-0.224095
5.520,951380,16.931795,8.959103,9.481039,0.219832,0.567299,-0.265530
5.540,951400,13.383588,7.757214,8.690952,0.251407,0.910103,-0.733704
5.560,951420,13.402741,6.114791,5.640739,0.335077,1.049462,-0.925424
5.580,951440,10.433931,4.357447,4.089296,0.614329,1.062519,-0.674683
5.600,951460,6.895301,2.595315,3.313575,0.727576,0.920628,-0.428472
5.620,951480,4.410120,1.426944,2.844312,0.348266,0.786331,-0.240083
5.640,951500,3.064578,0.474052,2.097321,0.118176,0.302435,-0.153616
5.660,951520,2.806004,0.076614,1.465251,-0.222629,-0.017986,-0.044366
5.680,951540,2.901772,0.181959,0.785298,-0.275922,-0.385438,0.102455
5.700,951560,2.815581,0.612916,1.292869,-0.291510,-0.563968,0.252340
5.720,951580,2.442086,0.909797,1.594538,-0.276322,-0.732372,0.192786
5.740,951600,1.086968,0.392649,1.690306,-0.228225,-0.874130,0.010658
5.760,951620,2.130840,1.096544,3.548207,-0.318423,-0.955934,-0.170003
5.780,951640,15.313314,4.630386,6.325481,-0.421144,-1.224129,-0.518270
5.800,951660,14.350845,4.180276,4.912902,-0.371982,-0.680678,0.037305
5.820,951680,11.870452,5.971139,7.402872,-0.414749,-0.871732,0.235819
5.840,951700,18.411411,9.452309,8.374918,-0.504813,-0.826966,-0.182260
5.860,951720,20.254946,9.701305,10.007763,-0.359458,-0.460447,-0.348266
5.880,951740,16.184803,7.694964,9.955091,-0.321620,0.253539,-0.159211
5.900,951760,14.532804,6.526594,8.767567,-0.398894,0.813643,-0.102588
5.920,951780,12.588713,5.396531,6.133945,-0.373847,1.046665,-0.178530
5.940,951800,9.658210,3.892972,4.113238,-0.134564,1.124205,-0.235686
5.960,951820,7.335834,2.523489,2.916138,0.277254,0.746495,-0.290444
5.980,951840,5.980716,1.704672,2.667141,-0.146821,0.814576,-0.230623
6.000,951860,2.145205,0.646434,0.938527,-0.031443,0.287113,-0.127636
6.020,951880,1.211466,0.497994,1.374272,-0.137361,0.125904,0.087400
6.040,951900,1.297657,-0.028730,0.861913,0.008793,-0.049962,0.238617
6.060,951920,1.699883,0.526724,1.589750,0.015055,-0.111914,0.369850
6.080,951940,1.039083,0.488417,1.513135,0.026513,-0.032242,0.474303
6.100,951960,0.043096,0.770933,1.656788,-0.020784,0.042501,0.551711
6.120,951980,1.479617,2.111686,2.537854,0.031576,-0.044499,0.504946
6.140,952000,13.642161,6.282385,6.004658,0.207974,-0.592879,0.232355
6.160,952020,16.136919,4.548983,3.758897,0.390368,-0.058622,0.380375
6.180,952040,10.730812,6.291962,6.746861,0.220231,-0.145355,0.476168
6.200,952060,17.372328,8.269572,9.203311,0.361723,-0.519469,0.126969
6.220,952080,22.122423,10.529699,9.864111,0.263798,0.019319,-0.038904
6.240,952100,16.419436,9.375694,9.658210,0.273657,0.498152,-0.184925
6.260,952120,14.221559,8.920795,9.145850,0.291910,0.694801,-0.634047
6.280,952140,12.708423,6.540959,6.713342,0.349466,0.802718,-0.824568
6.300,952160,10.127473,4.721366,5.037400,0.207308,0.992040,-0.701596
6.320,952180,6.564901,2.566584,3.543418,0.269260,0.792593,-0.510142
6.340,952200,4.548983,1.498770,3.126827,0.151351,0.616461,-0.283383
6.360,952220,2.269703,0.014365,1.503559,0.107118,0.389035,-0.083536
6.380,952240,1.546654,-0.272939,1.345541,-0.134164,0.206908,0.183593
6.400,952260,1.996764,0.296881,1.216254,-0.183326,-0.233021,0.344802
6.420,952280,3.701436,1.154005,1.814805,-0.221830,-0.468574,0.363588
6.440,952300,1.498770,0.478840,1.584962,-0.164674,-0.415282,0.375046
6.460,952320,-0.129287,0.282516,2.097321,-0.224761,-0.537055,0.327482
6.480,952340,3.241749,1.819593,3.653552,-0.304167,-0.900643,0.122040
6.500,952360,16.443377,5.099649,6.952762,-0.412351,-1.578524,-0.300037
6.520,952380,15.112201,3.663129,5.693412,-0.426340,-0.565833,0.031043
6.540,952400,10.817003,4.553771,7.067683,-0.542651,-0.757020,0.331479
6.560,952420,19.440918,8.456321,9.021352,-0.503747,-1.073844,0.118043
6.580,952440,20.939688,9.519346,10.544065,-0.411951,-0.257270,-0.087000
6.600,952460,14.863204,7.939173,10.309433,-0.423942,0.435000,-0.126037
6.620,952480,13.512875,6.536170,8.389283,-0.357593,0.873331,-0.297905
6.640,952500,12.349293,4.922479,5.573701,-0.250208,0.990708,-0.349199
6.660,952520,9.931149,3.624821,3.931279,-0.180662,0.878127,-0.274190
6.680,952540,7.445967,2.643199,3.026271,-0.094594,0.532925,-0.158012
6.700,952560,4.472369,1.422156,2.240973,0.239017,0.055025,-0.060087
6.720,952580,1.182736,0.497994,2.097321,-0.064617,0.332145,0.070213
6.740,952600,0.349553,0.359130,1.920150,-0.069946,0.133498,0.127103
6.760,952620,0.766145,0.296881,1.805228,-0.118043,0.090331,0.206642
6.780,952640,1.326388,0.469264,1.656788,-0.020651,-0.040502,0.222230
6.800,952660,1.005565,0.804452,1.618480,-0.044632,0.040769,0.245812
6.820,952680,0.732626,1.173159,1.867477,-0.069547,0.003198,0.250208
6.840,952700,3.385401,2.949656,4.165911,-0.166406,-0.282583,0.227026
6.860,952720,16.783354,5.803545,6.234501,-0.688806,-1.078107,-0.125371
6.880,952740,13.627796,5.003881,3.931279,-0.033708,-0.335876,0.525464
6.900,952760,11.621455,6.540959,7.058106,-0.752757,-0.723712,0.374113
6.920,952780,18.708292,8.805874,8.844181,-0.222496,-0.460847,0.059554
6.940,952800,21.538239,9.916783,9.006987,-0.235286,-0.157613,-0.083669
6.960,952820,15.969325,8.729259,9.490616,0.219299,0.410619,-0.164008
6.980,952840,14.221559,7.422025,8.274361,0.238617,0.634714,-0.525997
7.000,952860,13.345281,5.947197,5.846641,0.372648,0.767812,-0.497752
7.020,952880,9.734824,4.132392,4.448427,0.560104,0.872931,-0.249542
7.040,952900,5.837064,2.485181,3.270479,0.551844,0.674017,-0.153216
7.060,952920,3.754108,1.345541,2.762909,0.205709,0.558639,-0.103121
7.080,952940,2.164358,0.100556,1.450886,-0.019851,0.185058,-0.051694
7.100,952960,1.766921,-0.354342,1.106121,-0.330946,-0.224894,0.039836
7.120,952980,2.035071,0.081403,0.794875,-0.434867,-0.515072,0.140959
7.140,953000,2.681506,0.905008,1.513135,-0.378110,-0.623655,0.196116
7.160,953020,1.465251,0.603339,2.068590,-0.261533,-0.577158,0.183060
7.180,953040,0.871489,0.287304,2.537854,-0.268861,-0.662692,0.072478
7.200,953060,7.129933,2.772485,4.917690,-0.701329,-1.055058,-0.265130
7.220,953080,15.969325,4.367024,5.343858,-0.545582,-1.119276,-0.298571
7.240,953100,11.511322,3.979163,6.110003,-0.324152,-0.621391,0.309763
7.260,953120,13.283031,6.042965,8.025364,-0.386770,-0.654032,0.221164
7.280,953140,20.695480,9.045294,9.203311,-0.488292,-0.741565,-0.198115
7.300,953160,19.780895,7.996634,9.720459,-0.146288,-0.171602,-0.155481
7.320,953180,15.883134,6.665458,9.519346,-0.020917,0.365720,-0.020651
7.340,953200,14.523228,5.995081,7.623138,0.034773,0.764481,-0.021850
7.360,953220,12.962208,4.951209,5.430049,0.285248,0.964194,0.004530
7.380,953240,9.730036,3.845088,4.496311,0.513340,1.012424,0.097259
7.400,953260,6.244078,2.442086,3.327940,0.615662,0.623922,0.068881
7.420,953280,3.926491,1.163582,2.130840,0.142957,0.629651,0.049296
7.440,953300,1.326388,0.043096,1.321599,0.062219,0.144423,0.078207
7.460,953320,1.407791,-0.239420,1.139640,-0.060620,-0.031842,0.179995
7.480,953340,1.431733,-0.320823,0.742203,-0.027979,-0.137361,0.302701
7.500,953360,1.422156,0.339977,1.201889,-0.004397,-0.237951,0.380109
7.520,953380,0.469264,0.670376,1.508347,-0.040636,-0.116577,0.412750
7.540,953400,0.225055,0.933739,1.675941,0.003464,-0.063818,0.361456
7.560,953420,5.477933,3.830723,3.691859,0.092196,-0.340939,0.209706
7.580,953440,16.199169,5.037400,5.070919,0.329614,-0.470972,0.184259
7.600,953460,12.263102,4.525041,4.865018,0.357859,0.029044,0.498685
7.620,953480,14.312538,5.626374,7.383718,0.305766,-0.339207,0.383173
7.640,953500,22.060175,7.915231,8.513782,0.220231,-0.452587,0.222896
7.660,953520,22.366632,8.681376,8.456321,0.086067,-0.009193,0.219299
7.680,953540,16.740259,8.719683,8.135497,-0.002132,0.181861,-0.065150
7.700,953560,14.992491,8.063671,7.388506,0.108717,0.390767,-0.478567
7.720,953580,11.554418,5.305551,5.085284,0.221031,0.573161,-0.628851
7.740,953600,8.470686,3.260903,3.821146,0.112047,0.675349,-0.566899
7.760,953620,5.808333,1.733402,2.767697,0.025181,0.585418,-0.389968
7.780,953640,3.126827,0.536301,2.173935,0.022383,0.436865,-0.167605
7.800,953660,1.388637,-0.215478,1.513135,-0.120308,0.289911,0.002798
7.820,953680,1.359907,-0.363919,1.010353,-0.219965,0.005729,0.119775
7.840,953700,2.418144,0.158017,1.043872,-0.221297,-0.334410,0.182527
7.860,953720,3.184288,0.723049,1.776498,-0.206642,-0.518003,0.223562
7.880,953740,0.215478,0.354342,2.322376,-0.221031,-0.348666,0.112447
7.900,953760,-0.478840,0.411803,2.930503,-0.234221,-0.456450,-0.076075
7.920,953780,6.564901,2.925714,4.750096,-0.371315,-1.002832,-0.335210
7.940,953800,21.610065,4.630386,6.177041,-0.261666,-1.512175,-0.559571
7.960,953820,12.837709,3.806781,5.200206,-0.379576,-0.344403,0.033574
7.980,953840,13.397953,7.038953,7.350199,-0.418613,-0.948340,0.140292
8.000,953860,20.609289,9.318233,8.360553,-0.182660,-0.813377,-0.187323
8.020,953880,18.789696,8.657434,9.375694,-0.257003,-0.025714,-0.369583
8.040,953900,15.054740,7.038953,9.303867,-0.318423,0.701462,-0.285515
8.060,953920,13.426683,6.119579,7.393295,-0.336409,1.121807,-0.395164
8.080,953940,12.435484,5.396531,5.334281,-0.264064,1.174034,-0.575692
8.100,953960,9.050082,4.017470,4.271256,-0.236752,1.088499,-0.618193
8.120,953980,5.468357,2.518700,3.021482,-0.052626,0.720115,-0.589149
8.140,954000,3.758897,1.589750,2.240973,-0.193718,0.724778,-0.399427
8.160,954020,1.704672,0.387861,1.211466,-0.013057,0.461913,-0.087400
8.180,954040,1.455675,0.483629,1.604115,-0.157746,0.398628,0.224361
8.200,954060,1.508347,0.378284,1.173159,-0.029844,0.185191,0.396363
8.220,954080,1.637634,0.770933,1.680730,0.021051,0.013723,0.500017
8.240,954100,0.541090,0.359130,1.594538,0.016787,0.035839,0.517204
8.260,954120,-0.248997,0.272939,1.742979,0.033308,0.005462,0.526530
8.280,954140,1.350330,1.206678,2.327164,0.118975,-0.117910,0.614596
8.300,954160,12.732365,5.200206,5.252879,0.216234,-0.966459,0.374779
8.320,954180,18.569427,5.032612,3.576937,0.523599,-0.529727,0.371715
8.340,954200,11.171345,5.358223,6.502652,0.299371,-0.385571,0.427139
8.360,954220,17.147272,8.374918,8.834604,0.128035,-0.803917,-0.039570
8.380,954240,24.641125,11.635820,9.835381,-0.288579,-0.774207,-0.312827
8.400,954260,18.713081,10.208876,8.796297,-0.253273,0.090997,-0.396496
8.420,954280,15.145720,8.475474,8.264784,0.062485,0.544649,-0.599541
8.440,954300,14.724340,6.459556,5.822699,0.124704,0.762482,-0.662692
8.460,954320,10.706870,4.625597,4.122815,0.258735,0.786198,-0.317357
8.480,954340,6.507440,3.246537,3.734955,0.271658,0.683343,-0.139227
8.500,954360,3.543418,1.661576,3.136404,0.078873,0.750092,-0.086067
8.520,954380,1.484405,0.234632,1.948880,-0.116178,0.497885,-0.092729
8.540,954400,1.077391,-0.244209,1.063026,-0.306432,0.229158,-0.074476
8.560,954420,0.852336,-0.119710,0.445322,-0.349998,-0.076874,-0.019185
8.580,954440,1.618480,0.818817,1.110910,-0.393832,-0.295640,-0.073410
8.600,954460,2.207454,0.847547,1.896208,-0.312427,-0.340539,-0.158279
8.620,954480,0.574608,0.354342,2.834735,-0.359458,-0.315092,-0.162809
8.640,954500,2.873042,1.719037,4.759673,-0.602738,-0.553842,-0.262466
8.660,954520,15.418659,5.238513,5.746084,-0.822703,-1.160977,-0.544250
8.680,954540,15.011644,4.999093,4.568137,-0.432602,-0.612064,0.096459
8.700,954560,10.812215,6.373365,6.909666,-0.359858,-0.614596,0.343337
8.720,954580,16.831238,9.097966,9.806650,-0.183193,-0.777138,-0.094994
8.740,954600,20.690691,8.791509,10.347740,-0.093129,-0.078873,-0.195717
8.760,954620,15.868769,7.010222,9.964667,-0.149352,0.636312,-0.002931
8.780,954640,14.858416,6.813898,7.795521,-0.174400,0.790461,-0.129900
8.800,954660,13.302185,5.688623,5.482722,-0.028378,0.784332,-0.175466
8.820,954680,9.859323,3.878607,4.644751,0.124038,0.740632,-0.103654
8.840,954700,6.411672,2.169147,3.730166,0.034374,0.658429,-0.057423
8.860,954720,4.304775,1.125275,2.442086,-0.054225,0.513473,0.011991
8.880,954740,2.786851,0.718261,1.283292,-0.211038,0.403957,0.057956
8.900,954760,2.092532,0.665588,0.885855,-0.187057,0.159877,0.086334
8.920,954780,0.866701,0.014365,0.426168,0.063951,0.182660,0.159611
8.940,954800,0.828394,0.339977,0.742203,0.336542,0.098458,0.220498
8.960,954820,0.703895,0.430956,1.240196,0.344003,0.298838,0.260067
8.980,954840,1.015141,0.373495,1.197101,0.261266,0.361590,0.316824
9.000,954860,3.174711,1.498770,2.585738,0.303101,0.089398,0.388236
9.020,954880,12.392388,5.573701,6.526594,0.179196,-0.603671,0.181461
9.040,954900,15.303738,5.377377,5.822699,0.092329,-0.102322,0.306698
9.060,954920,11.425131,6.110003,7.287950,0.073943,-0.024248,0.560237
9.080,954940,17.717093,9.327810,9.375694,0.247677,-0.356793,0.271126
9.100,954960,21.748928,10.539276,10.304645,0.144822,0.054092,0.129767
9.120,954980,14.973337,9.035717,10.371682,0.039170,0.600873,-0.075675
9.140,955000,13.781025,8.188169,9.595961,0.002265,0.698931,-0.640842
9.160,955020,13.771448,6.253655,6.344635,0.059954,0.727043,-0.809247
9.180,955040,10.568007,4.137180,4.726154,0.088066,0.558905,-0.540253
9.200,955060,5.889736,2.489970,3.509900,0.182926,0.158812,-0.309363
9.220,955080,3.801992,2.035071,3.620033,-0.216368,0.411685,-0.204377
9.240,955100,1.709460,0.823605,2.121263,-0.243946,0.264064,-0.161876
9.260,955120,1.398214,0.306458,1.331176,-0.237951,-0.055158,-0.015855
9.280,955140,1.580173,0.397437,0.756568,-0.231023,-0.214236,0.174000
9.300,955160,2.006341,1.312023,1.455675,-0.166139,-0.423009,0.188122
9.320,955180,1.537078,1.264138,2.250550,-0.091263,-0.410485,0.072478
9.340,955200,0.679953,0.718261,2.585738,-0.108450,-0.364521,-0.026913
9.360,955220,4.774038,2.959233,5.032612,-0.201845,-0.802718,-0.166939
9.380,955240,17.180792,5.655105,7.819463,-0.229557,-1.130734,-0.508677
9.400,955260,12.445061,4.395754,6.311116,-0.376378,-0.068881,0.049828
9.420,955280,11.449073,7.335834,7.896077,-0.368917,-0.635646,0.175998
9.440,955300,20.436905,10.888829,10.759542,-0.177997,-0.696400,-0.232755
9.460,955320,18.095377,9.054871,11.631032,-0.164141,0.097925,-0.300570
9.480,955340,13.412318,7.460332,11.228806,-0.356127,0.695067,-0.175599
9.500,955360,12.876017,6.521805,8.695741,-0.359191,0.929288,-0.278720
9.520,955380,10.879252,5.085284,6.119579,-0.297905,0.854545,-0.293508
9.540,955400,8.240842,4.189853,5.013458,-0.415948,0.849083,-0.282850
9.560,955420,5.635951,2.724602,3.366248,-0.190521,0.494688,-0.226626
9.580,955440,3.821146,2.193089,2.834735,-0.216767,0.431403,-0.083669
9.600,955460,1.259350,1.134852,1.915361,-0.136828,0.323752,-0.037172
9.620,955480,0.732626,0.407014,1.987187,-0.121507,0.222230,0.013590
9.640,955500,0.402226,-0.023942,1.297657,-0.036639,0.182793,0.119642
9.660,955520,1.350330,0.809240,1.513135,-0.015055,0.045965,0.253406
9.680,955540,1.259350,1.177947,1.642422,0.097126,0.022383,0.371982
9.700,955560,1.288081,1.522712,1.790863,0.146421,-0.079273,0.415015
9.720,955580,3.624821,2.825158,3.117251,0.249542,-0.548646,0.434334
9.740,955600,13.010092,6.454768,6.651093,0.236885,-1.177897,0.269394
9.760,955620,15.691598,5.492299,5.281609,0.274989,-0.438864,0.503614
9.780,955640,10.395624,5.592855,6.789956,0.250741,-0.565433,0.805516
9.800,955660,18.004396,9.121908,9.428367,0.353995,-1.056391,0.445126
9.820,955680,22.476765,10.486604,9.955091,0.224095,-0.547580,0.296706
9.840,955700,15.983690,8.087613,9.864111,0.126703,-0.063951,0.224095
9.860,955720,14.748282,7.580042,8.566454,0.003730,0.195317,-0.216900
9.880,955740,12.042834,6.196194,6.248867,-0.062885,0.434734,-0.393165
9.900,955760,7.661446,3.988740,4.774038,-0.076075,0.590348,-0.382907
9.920,955780,5.295974,2.327164,3.462016,-0.133098,0.482031,-0.336009
9.940,955800,4.831499,1.355118,2.389413,-0.284582,0.308830,-0.232222
9.960,955820,3.725378,0.134075,0.852336,-0.334544,0.010259,-0.077008
9.980,955840,2.106898,-0.071826,0.550666,-0.585152,-0.027312,0.130833
10.000,955860,0.593762,0.421380,0.876278,-0.587683,-0.077940,0.130433
10.020,955880,0.804452,1.024718,1.570596,-0.360790,-0.335343,-0.059288
10.040,955900,3.007117,1.240196,2.001553,-0.477634,-0.203444,-0.193718
10.060,955920,3.438074,1.446098,2.839523,-0.379975,-0.345602,-0.160544
10.080,955940,10.036493,3.667917,5.386954,-0.396763,-0.948074,-0.318289
10.100,955960,12.842498,3.806781,5.774815,-0.425541,-0.617660,-0.179196
10.120,955980,10.414778,4.831499,6.900089,-0.425674,-0.492822,0.079006
10.140,956000,14.456190,6.962338,7.809886,-0.367452,-0.706658,-0.097925
10.160,956020,19.579781,8.796297,10.208876,-0.351597,-0.801786,-0.347067
10.180,956040,18.550274,7.876924,10.836157,-0.368651,-0.127103,-0.208907
10.200,956060,14.982914,7.029376,10.414778,-0.383972,0.494021,-0.032642
10.220,956080,13.546393,6.521805,8.552089,-0.310029,0.798455,-0.167605
10.240,956100,11.501745,4.955997,6.200983,-0.250608,0.905573,-0.254871
10.260,956120,8.805874,3.399766,4.467580,-0.242747,0.870266,-0.176132
10.280,956140,6.612785,2.149993,2.801216,0.054625,0.360923,-0.072611
10.300,956160,4.568137,1.398214,2.547431,-0.215302,0.464178,0.082337
10.320,956180,1.728614,0.675165,1.268927,-0.148153,0.259002,0.121240
10.340,956200,0.507571,0.723049,1.192312,-0.287247,0.349466,0.184525
10.360,956220,-0.134075,0.679953,1.201889,-0.012124,0.060487,0.148819
10.380,956240,1.403002,1.063026,1.733402,0.044899,-0.078606,0.081671
10.400,956260,2.111686,0.746991,1.714248,0.087133,-0.028645,0.133098
10.420,956280,0.689530,0.924162,1.814805,0.062219,-0.002665,0.254205
10.440,956300,2.154782,2.595315,3.457227,0.114046,-0.230490,0.271392
10.460,956320,12.191275,5.382165,6.813898,0.216501,-0.879593,-0.028645
10.480,956340,16.807297,4.831499,4.496311,0.319222,-0.421410,0.274723
10.500,956360,11.147403,5.157111,6.756437,0.187190,-0.411152,0.712121
10.520,956380,16.864758,7.077260,8.968679,0.274989,-0.820305,0.505080
10.540,956400,21.777658,9.366117,9.744401,0.141225,-0.595544,0.354262
10.560,956420,17.894264,9.141062,9.385271,0.089798,0.139760,0.078740
10.580,956440,14.590265,8.379706,8.571242,0.111381,0.517737,-0.416747
10.600,956460,12.521675,6.502652,6.464345,0.171335,0.729708,-0.715985
10.620,956480,9.519346,4.252102,4.649539,0.162675,1.001366,-0.626853
10.640,956500,6.612785,2.451663,3.126827,0.302568,1.005496,-0.414216
10.660,956520,5.195418,1.671153,2.557007,0.179462,0.984446,-0.212904
10.680,956540,3.596091,0.627281,1.407791,0.151617,0.658162,-0.065283
10.700,956560,2.173935,0.531513,1.388637,-0.152816,0.205176,0.046498
10.720,956580,1.680730,0.325611,0.991199,-0.071678,-0.167338,0.105652
10.740,956600,1.891419,1.077391,1.675941,-0.103787,-0.329881,0.142158
10.760,956620,2.327164,1.019930,1.867477,-0.073277,-0.387570,0.113779
10.780,956640,1.072602,0.488417,2.360683,-0.020784,-0.488426,0.085534
10.800,956660,2.700660,1.517924,4.343082,-0.113646,-0.790461,-0.013190
10.820,956680,14.575900,5.248090,8.489840,-0.231956,-1.658596,-0.401293
10.840,956700,18.612524,5.224148,6.818686,-0.452453,-0.657230,-0.158812
10.860,956720,13.551182,6.215348,8.135497,-0.413417,-0.506945,0.306965
10.880,956740,20.977995,9.964667,10.534488,-0.267795,-0.987110,-0.131366
10.900,956760,19.790472,8.609550,10.951078,-0.285781,-0.045432,-0.340539
10.920,956780,13.000515,6.651093,10.467450,-0.473770,0.719982,-0.269926
10.940,956800,9.437943,5.856217,8.169016,-0.495087,1.195084,-0.470839
10.960,956820,8.619126,4.587290,4.951209,-0.376378,1.308864,-0.620724
10.980,956840,9.126697,3.342306,3.189077,-0.208374,0.911035,-0.519069
11.000,956860,6.900089,1.795651,1.565808,-0.168138,0.638577,-0.262732
11.020,956880,2.753332,1.283292,1.733402,-0.180129,0.366386,0.011991
11.040,956900,0.119710,1.264138,1.517924,-0.040769,0.087666,0.072744
11.060,956920,1.675941,1.043872,1.714248,-0.081804,-0.020917,0.109383
11.080,956940,3.040636,0.507571,0.809240,0.056357,-0.183726,0.280052
11.100,956960,1.316811,0.555455,1.264138,0.050761,-0.147487,0.493089
11.120,956980,-0.780510,1.187524,1.685518,0.024248,-0.033308,0.600340
11.140,957000,0.392649,2.035071,2.250550,0.101123,-0.218366,0.580222
11.160,957020,8.135497,5.755661,5.434838,0.125637,-0.741032,0.374646
11.180,957040,18.923771,6.138733,5.396531,0.362922,-0.719049,0.131899
11.200,957060,10.989386,5.200206,5.573701,0.305366,0.052893,0.795257
11.220,957080,13.249513,7.795521,9.739613,0.360923,-0.543184,0.435266
11.240,957100,21.811178,10.386047,10.271125,0.266462,-0.230890,-0.057822
11.260,957120,19.373880,9.591172,9.236830,0.207041,0.471772,-0.097259
11.280,957140,13.986926,9.442732,9.141062,0.169603,0.693602,-0.424608
11.300,957160,11.884817,7.953538,7.608773,0.222629,0.830963,-0.871998
11.320,957180,9.849746,5.248090,5.612009,0.230757,0.924092,-0.909969
11.340,957200,7.900866,2.964022,4.371812,0.161476,0.817240,-0.742364
11.360,957220,5.731719,1.407791,3.342306,-0.055424,0.667755,-0.454452
11.380,957240,2.777274,0.407014,2.188300,-0.252073,0.504014,-0.116311
11.400,957260,1.154005,0.268151,1.680730,-0.376112,0.179329,0.124704
11.420,957280,0.622492,0.311246,1.072602,-0.373980,-0.135763,0.209306
11.440,957300,1.599327,1.278504,1.905785,-0.326017,-0.457516,0.112714
11.460,957320,1.719037,1.086968,2.360683,-0.283649,-0.401293,-0.005596
11.480,957340,0.924162,0.775721,2.652776,-0.247544,-0.436865,-0.001199
11.500,957360,4.587290,3.112462,5.051765,-0.323219,-0.833894,-0.043700
11.520,957380,14.432248,5.468357,7.038953,-0.287646,-1.228126,-0.282051
11.540,957400,13.101071,5.013458,6.459556,-0.361590,-0.476302,0.037305
11.560,957420,12.646173,6.133945,7.661446,-0.185191,-0.761550,0.242348
11.580,957440,18.717869,9.327810,9.126697,-0.143224,-0.965260,0.015988
11.600,957460,18.454506,9.006987,10.271125,-0.127769,-0.369983,-0.111781
11.620,957480,13.790602,7.637504,10.228029,-0.233288,0.276055,-0.183060
11.640,957500,12.057199,6.196194,8.614338,-0.309629,0.715319,-0.395697
11.660,957520,10.620679,4.424485,6.014235,-0.368784,0.870933,-0.435666
11.680,957540,8.872911,3.797204,4.764462,-0.386903,0.830031,-0.384505
11.700,957560,6.828263,3.117251,3.639187,-0.365720,0.735836,-0.344270
11.720,957580,4.108450,2.116474,3.174711,-0.159345,0.451254,-0.270459
11.740,957600,1.881842,1.024718,2.312799,-0.335743,0.629384,-0.208107
11.760,957620,1.570596,0.363919,1.843535,-0.191853,0.299371,-0.153882
11.780,957640,1.833959,0.090980,1.599327,-0.368784,0.139227,-0.053292
11.800,957660,1.594538,0.555455,1.814805,-0.328282,-0.048230,0.099124
11.820,957680,1.312023,0.957681,2.149993,-0.317490,-0.082070,0.256737
11.840,957700,0.972046,1.225831,2.049437,-0.230890,-0.066616,0.399028
11.860,957720,2.446874,2.437297,3.615245,-0.192652,-0.474836,0.437531
11.880,957740,10.850522,6.239290,8.178593,-0.952204,-1.447691,0.069813
11.900,957760,14.824897,6.531382,4.204218,-0.342671,-0.542518,0.129767
11.920,957780,10.544065,6.014235,8.001422,0.274723,-0.293375,0.615262
11.940,957800,16.371552,7.522582,9.227253,-0.191054,-0.863871,0.285781
11.960,957820,21.054609,10.251971,9.476251,-0.036106,-0.556907,0.171469
11.980,957840,16.955736,10.050858,10.721235,0.104453,0.046897,0.077274
12.000,957860,15.021221,10.093954,9.490616,0.244346,0.506945,-0.362789
12.020,957880,13.259089,8.346188,7.996634,0.402492,0.786864,-0.644040
12.040,957900,11.046846,5.525817,5.712565,0.520534,0.937948,-0.570096
12.060,957920,7.829040,2.959233,4.228160,0.634314,0.873864,-0.295107
12.080,957940,4.898537,1.465251,3.462016,0.303634,0.789395,-0.041701
12.100,957960,2.226608,0.565032,2.360683,-0.041701,0.443660,0.128035
12.120,957980,1.465251,0.296881,1.493982,-0.297639,0.073677,0.232222
12.140,958000,1.460463,0.148441,0.450110,-0.224894,-0.319355,0.303368
12.160,958020,2.288857,1.096544,1.125275,-0.302835,-0.486694,0.328548
12.180,958040,1.939303,1.331176,1.762132,-0.173334,-0.473904,0.246478
12.200,958060,0.339977,0.866701,2.461239,-0.092196,-0.409553,0.163075
12.220,958080,1.106121,0.833182,3.390190,-0.132432,-0.443527,0.084202
12.240,958100,9.074024,3.586514,6.560112,-0.449789,-1.042934,-0.199181
12.260,958120,19.115307,5.602432,5.947197,-0.239550,-1.090098,-0.231423
12.280,958140,13.388376,5.453991,7.536947,-0.269260,-0.503214,0.389701
12.300,958160,15.275007,8.863335,9.615114,-0.454585,-0.892516,0.180262
12.320,958180,18.617311,8.954314,10.582372,-0.214636,-0.427539,-0.201712
12.340,958200,16.237476,7.704541,9.797073,-0.064750,0.283783,-0.109516
12.360,958220,13.603854,6.828263,9.050082,0.053825,0.689072,-0.041968
12.380,958240,11.841722,5.693412,6.952762,0.043966,0.868801,-0.128968
12.400,958260,10.026917,4.031836,5.066131,0.192253,0.951538,-0.176665
12.420,958280,7.527370,2.786851,4.127604,0.096726,0.838557,-0.093129
12.440,958300,5.046977,1.881842,3.107674,0.126303,0.544516,0.026913
12.460,958320,2.504335,0.608127,1.948880,0.014922,0.510942,0.199314
12.480,958340,0.512359,0.239420,1.206678,-0.100590,0.119508,0.245545
12.500,958360,0.392649,0.153229,1.479617,-0.158812,0.030776,0.236619
12.520,958380,0.713472,0.617704,1.848324,-0.045698,-0.075142,0.214902
12.540,958400,1.225831,1.144428,1.996764,0.015322,-0.029444,0.241681
12.560,958420,0.560243,1.283292,1.900996,-0.004263,0.081671,0.308164
12.580,958440,1.987187,2.470816,3.342306,0.021850,-0.127502,0.239417
12.600,958460,12.344504,5.760449,6.679823,0.215302,-1.079040,-0.068881
12.620,958480,15.490485,5.415684,4.127604,0.174666,-0.198781,0.223695
12.640,958500,9.064447,5.080496,6.277597,0.136029,-0.213170,0.593145
12.660,958520,14.034810,7.067683,9.346964,0.200646,-0.622723,0.360391
12.680,958540,21.217415,9.572019,9.662998,0.023582,-0.261533,0.098724
12.700,958560,17.803284,8.968679,9.351752,-0.120841,0.335609,0.035173
12.720,958580,15.782578,9.069236,8.863335,-0.113247,0.359058,-0.349998
12.740,958600,14.609419,7.661446,7.359776,-0.013057,0.412217,-0.585418
12.760,958620,11.444284,5.334281,5.947197,0.010259,0.507478,-0.525198
12.780,958640,8.116343,3.538630,4.568137,-0.018519,0.486161,-0.417147
12.800,958660,5.032612,2.202666,3.835511,-0.012790,0.342271,-0.289645
12.820,958680,2.221819,0.866701,2.662352,-0.249942,0.494021,-0.156413
12.840,958700,1.091756,0.043096,1.661576,-0.232888,0.265930,-0.010925
12.860,958720,1.120486,-0.205901,1.163582,-0.281518,0.120441,0.165873
12.880,958740,2.398990,0.699107,1.335965,-0.201312,-0.196116,0.173467
12.900,958760,3.280056,0.981623,1.685518,-0.159877,-0.232355,0.107384
12.920,958780,1.149217,0.397437,2.197877,-0.104587,-0.174400,0.069280
12.940,958800,2.542642,1.479617,4.118027,-0.102322,-0.556240,0.005196
12.960,958820,11.654974,4.410120,6.909666,-0.176665,-1.127669,-0.251407
12.980,958840,15.859192,5.717354,6.023811,-0.229024,-0.596743,-0.132299
13.000,958860,12.306197,5.971139,7.383718,-0.085135,-0.554642,0.150418
13.020,958880,17.401058,8.408437,9.165004,0.025447,-0.946874,-0.017720
13.040,958900,20.671537,9.255983,10.309433,0.000400,-0.680945,-0.095394
13.060,958920,15.035586,7.685388,10.414778,-0.086067,-0.046498,-0.094994
13.080,958940,13.081918,6.497863,8.839393,-0.128568,0.360790,-0.247544
13.100,958960,11.951855,4.922479,6.584054,-0.239816,0.612464,-0.281118
13.120,958980,9.921572,3.797204,5.018247,-0.259268,0.557573,-0.162142
13.140,959000,7.163452,3.093309,3.993528,-0.259668,0.459381,-0.066349
13.160,959020,4.228160,2.159570,3.351882,-0.249276,0.453519,-0.015322
13.180,959040,1.254562,0.967257,2.379837,-0.255671,0.548113,0.000133
13.200,959060,0.143652,0.311246,1.503559,-0.117510,0.372914,0.024248
13.220,959080,0.497994,0.359130,1.307234,-0.023982,0.192119,0.132565
13.240,959100,1.666364,0.507571,1.575385,0.053825,-0.042101,0.195184
13.260,959120,2.274492,0.579397,1.532289,0.010925,0.017187,0.320021
13.280,959140,0.560243,0.919373,1.934515,0.017320,0.029577,0.437398
13.300,959160,0.952892,1.996764,2.786851,-0.001332,-0.074876,0.419279
13.320,959180,8.480263,5.056554,6.004658,0.184658,-0.831496,0.156813
13.340,959200,19.522320,5.722142,4.927267,0.344936,-0.611132,-0.028378
13.360,959220,11.276690,4.405331,5.789180,0.064084,0.017187,0.604470
13.380,959240,13.977349,6.531382,8.259995,0.177864,-0.622323,0.384772
13.400,959260,21.222204,10.074800,9.595961,0.100057,-0.628452,0.086867
13.420,959280,17.832014,9.284714,9.821015,0.014655,0.426873,0.007061
13.440,959300,13.014880,8.791509,9.825804,-0.060354,0.706658,-0.389302
13.460,959320,13.306973,7.465121,7.733272,0.012524,0.830164,-0.772874
13.480,959340,12.018892,4.908113,5.434838,0.084868,0.927556,-0.618459
13.500,959360,9.318233,3.409343,4.199430,0.094061,0.836159,-0.344669
13.520,959380,5.841852,2.102109,3.414132,0.099524,0.597276,-0.209440
13.540,959400,3.562572,1.369483,2.758120,0.039037,0.304433,-0.141492
13.560,959420,2.494758,0.694318,2.145205,-0.064351,0.091263,-0.062752
13.580,959440,2.255338,0.148441,1.154005,-0.200779,-0.080605,0.098724
13.600,959460,1.613692,0.000000,0.593762,-0.252473,-0.311361,0.311761
13.620,959480,1.393425,0.794875,1.340753,-0.274057,-0.603937,0.348133
13.640,959500,1.565808,1.096544,2.197877,-0.306299,-0.633648,0.172801
13.660,959520,2.513912,1.910573,3.643975,-0.320155,-0.775939,-0.051427
13.680,959540,12.804191,4.079720,6.172252,-0.397029,-1.503515,-0.446591
13.700,959560,15.456966,3.792415,5.224148,-0.526663,-0.864804,-0.117910
13.720,959580,11.209652,5.702989,6.943185,-0.583420,-0.824968,0.199980
13.740,959600,18.057070,9.514558,9.117120,-0.422876,-1.072911,-0.129767
13.760,959620,21.447258,10.596737,11.027693,-0.365054,-0.582887,-0.352530
13.780,959640,15.021221,7.857770,10.764331,-0.392499,0.332279,-0.253273
13.800,959660,13.139379,6.876147,9.667787,-0.305766,0.894515,-0.356260
13.820,959680,11.439496,5.133168,6.512228,-0.251274,1.148587,-0.454851
13.840,959700,9.495404,3.701436,4.381389,-0.193452,0.957933,-0.413017
13.860,959720,7.752425,2.896984,3.098097,-0.146021,0.533591,-0.217433
13.880,959740,5.075707,2.173935,1.977611,0.168404,-0.040636,-0.018786
13.900,959760,2.758120,1.436521,2.092532,-0.048096,0.124971,0.154015
13.920,959780,0.430956,0.124498,1.374272,-0.007194,0.010792,0.274456
13.940,959800,-0.330400,-0.067038,1.106121,-0.050628,-0.012524,0.421410
13.960,959820,0.919373,0.866701,1.513135,-0.007994,-0.173734,0.438064
13.980,959840,1.848324,0.928950,1.637634,0.073544,-0.105652,0.410485
14.000,959860,0.737414,0.742203,1.321599,0.008793,0.032508,0.422876
14.020,959880,1.173159,1.776498,2.255338,0.036372,-0.155481,0.445126
14.040,959900,9.998186,5.305551,6.023811,0.108317,-0.775939,0.130567
14.060,959920,19.335573,5.588067,4.764462,0.348000,-0.465910,0.153216
14.080,959940,10.534488,4.888960,5.712565,0.071945,0.013590,0.585285
14.100,959960,15.686810,7.005434,8.063671,0.019585,-0.493355,0.288579
14.120,959980,22.385786,9.797073,9.246407,-0.057423,-0.232489,0.003464
14.140,960000,18.239029,9.141062,8.844181,-0.046764,0.316557,-0.130034
14.160,960020,13.283031,8.312668,8.121132,-0.026513,0.596343,-0.484429
14.180,960040,12.215217,6.952762,6.416461,0.049029,0.756487,-0.779403
14.200,960060,10.405201,4.750096,4.683059,0.180795,0.763815,-0.719049
14.220,960080,7.493851,2.820370,3.950433,0.197182,0.734371,-0.475902
14.240,960100,3.936068,1.192312,3.184288,0.157879,0.631649,-0.260201
14.260,960120,2.020706,0.416591,2.461239,-0.049562,0.460181,-0.113113
14.280,960140,1.484405,0.110133,1.742979,-0.186257,0.122839,-0.011325
14.300,960160,2.178724,0.354342,1.197101,-0.342804,-0.062485,0.043700
14.320,960180,2.370260,0.593762,1.532289,-0.277787,-0.252740,0.124172
14.340,960200,1.374272,0.857124,2.217031,-0.245545,-0.312294,0.115911
14.360,960220,0.493206,0.866701,2.920926,-0.285248,-0.298571,0.013989
14.380,960240,5.070919,3.323152,5.295974,-0.377977,-0.670420,-0.264997
14.400,960260,16.429012,5.367800,6.780379,-0.349599,-0.843354,-0.647237
14.420,960280,10.419566,3.634398,6.110003,-0.419145,-0.164807,-0.113380
14.440,960300,12.425907,7.105990,8.714894,-0.421677,-0.689205,-0.149885
14.460,960320,20.360291,10.074800,10.156203,-0.370783,-0.448723,-0.498818
14.480,960340,17.774553,8.499416,10.630256,-0.228891,0.196250,-0.415948
14.500,960360,14.542381,8.082825,10.477027,-0.262466,0.735436,-0.263931
14.520,960380,14.264654,7.723695,8.360553,-0.096060,0.931686,-0.403691
14.540,960400,11.664551,5.597643,6.641516,-0.110315,0.959531,-0.530926
14.560,960420,8.370130,3.414132,5.477933,-0.243413,0.825234,-0.544250
14.580,960440,5.008670,2.485181,3.801992,-0.299504,0.728508,-0.391034
14.600,960460,3.581726,2.446874,2.801216,-0.394764,0.690138,-0.196916
14.620,960480,2.442086,1.335965,1.436521,-0.219432,0.484695,-0.063285
14.640,960500,2.020706,0.670376,1.321599,-0.174000,0.211971,0.090064
14.660,960520,1.388637,0.368707,1.187524,0.006129,-0.099124,0.240882
14.680,960540,1.297657,0.986411,2.121263,0.034773,-0.212104,0.358126
14.700,960560,0.378284,0.991199,1.790863,0.029444,-0.076475,0.440729
14.720,960580,-0.201113,1.254562,2.068590,0.091530,-0.176531,0.488026
14.740,960600,2.370260,3.280056,4.367024,0.062619,-0.295507,0.448456
14.760,960620,15.375564,6.957550,7.742848,0.250741,-0.794458,0.137495
14.780,960640,14.939818,5.295974,4.323928,0.257403,0.019319,0.488959
14.800,960660,10.697293,7.015011,7.805098,0.169070,-0.493089,0.585018
14.820,960680,17.286137,8.767567,10.290278,0.260201,-0.659628,0.246078
14.840,960700,18.325220,9.102755,10.395624,0.042501,0.037305,0.138427
14.860,960720,14.183250,8.916007,10.534488,0.022383,0.427939,-0.142424
14.880,960740,13.091495,8.552089,9.236830,0.018386,0.646038,-0.621790
14.900,960760,11.319786,6.521805,6.598420,0.059821,0.756087,-0.811645
14.920,960780,8.628703,4.515464,5.449203,0.075809,0.769810,-0.717583
14.940,960800,6.081272,2.729390,4.376601,0.105386,0.571296,-0.568364
14.960,960820,4.003105,1.666364,3.347094,-0.070080,0.501749,-0.406489
14.980,960840,2.001553,1.034295,2.169147,-0.280718,0.471372,-0.270459
15.000,960860,1.154005,0.780510,1.479617,-0.266462,0.087533,-0.132698
15.020,960880,1.963245,1.221043,1.331176,-0.247410,-0.190254,-0.005196
15.040,960900,2.710236,1.374272,1.690306,-0.184259,-0.369051,0.035440
15.060,960920,1.594538,0.986411,1.958457,-0.215968,-0.306165,0.117643
15.080,960940,1.101333,1.149217,2.547431,-0.179462,-0.487227,0.195850
15.100,960960,6.540959,4.199430,5.439626,-0.248876,-1.042135,0.111914
15.120,960980,15.739482,5.956774,7.771579,-0.208240,-1.181761,-0.209306
15.140,961000,10.251971,4.764462,7.354988,-0.249276,-0.434334,0.151750
15.160,961020,11.942278,7.685388,9.653421,-0.352930,-0.615662,0.188256
15.180,961040,19.460072,10.443508,11.463438,-0.113913,-0.581288,-0.036372
15.200,961060,15.978902,8.829816,11.798626,-0.265930,0.324285,-0.154282
15.220,961080,12.042834,8.207323,11.295844,-0.292443,0.788063,-0.300170
15.240,961100,12.909535,6.876147,8.058883,-0.123372,0.927956,-0.446458
15.260,961120,10.716447,5.228937,5.746084,-0.116444,0.831629,-0.400093
15.280,961140,8.216900,4.285621,5.018247,-0.116577,0.602738,-0.346534
15.300,961160,5.808333,3.112462,3.754108,-0.084735,0.401825,-0.267928
15.320,961180,4.003105,2.264915,3.098097,-0.115112,0.286181,-0.149885
15.340,961200,2.384625,1.403002,1.795651,-0.200913,0.237285,-0.017853
15.360,961220,1.575385,1.039083,1.292869,-0.046098,-0.191587,0.131766
15.380,961240,0.780510,0.852336,0.823605,-0.176798,-0.108184,0.269926
15.400,961260,0.928950,1.163582,1.268927,-0.034240,-0.172668,0.401692
15.420,961280,1.273715,1.034295,1.177947,-0.003198,-0.068747,0.527729
15.440,961300,2.082955,1.388637,1.556231,-0.014922,-0.160544,0.697066
15.460,961320,6.766014,4.405331,4.979939,-0.031443,-0.602871,0.705593
15.480,961340,14.935030,5.884948,6.464345,0.156147,-0.861740,0.330946
15.500,961360,11.372458,5.161899,6.191406,-0.115378,-0.305899,0.601273
15.520,961380,13.785813,6.890512,9.188946,-0.032375,-0.537988,0.661493
15.540,961400,19.579781,9.552865,10.333375,-0.443926,-0.651101,0.508277
15.560,961420,18.540697,10.663774,10.362105,-0.662692,-0.235953,0.117910
15.580,961440,13.498509,9.251195,10.371682,-0.044632,0.433668,-0.253806
15.600,961460,12.181698,7.278373,8.360553,0.170669,0.824302,-0.620191
15.620,961480,10.855310,5.090073,5.659893,0.335210,0.916098,-0.568498
15.640,961500,8.499416,3.371036,4.568137,0.447923,0.769144,-0.303234
15.660,961520,5.219360,1.714248,4.022259,0.268194,0.524265,-0.142158
15.680,961540,2.734178,0.641646,2.906561,-0.083136,0.322686,-0.064351
15.700,961560,0.742203,-0.186748,1.929727,-0.218766,0.118443,0.052760
15.720,961580,0.043096,0.000000,1.680730,-0.245279,-0.086467,0.139093
15.740,961600,1.182736,0.928950,2.451663,-0.250475,-0.266596,0.038904
15.760,961620,3.299210,1.283292,2.494758,-0.254738,-0.273790,-0.081005
15.780,961640,2.284068,0.560243,2.619257,-0.249809,-0.361456,0.003331
15.800,961660,3.557784,2.121263,5.056554,-0.460314,-0.785531,0.029577
15.820,961680,13.872005,5.473145,7.240066,-0.580089,-1.366420,-0.329081
15.840,961700,13.426683,4.989516,6.138733,-0.408620,-0.666023,0.020651
15.860,961720,11.037270,5.664681,8.135497,-0.326550,-0.751424,0.234354
15.880,961740,16.275784,8.418014,9.294291,-0.401026,-1.002165,-0.033841
15.900,961760,19.033903,9.011775,10.907983,-0.264064,-0.529328,-0.154948
15.920,961780,13.254301,7.584831,11.674128,-0.157746,0.393832,-0.091397
15.940,961800,11.176133,6.809110,10.654198,-0.242881,0.932086,-0.333744
15.960,961820,13.230358,5.947197,7.273585,-0.143490,1.112747,-0.517070
15.980,961840,10.773908,4.596867,5.439626,0.027046,1.122740,-0.380242
16.000,961860,6.823475,3.260903,4.453215,0.204377,1.081305,-0.187323
16.020,961880,4.108450,2.173935,3.500323,0.308031,0.818440,-0.084069
16.040,961900,2.772485,1.235408,2.782062,0.076741,0.689205,-0.009726
16.060,961920,1.177947,0.837971,1.853112,-0.030510,0.246478,0.045698
16.080,961940,0.943315,0.780510,1.991976,-0.055158,0.072877,0.117243
16.100,961960,0.521936,0.852336,2.116474,0.097259,-0.037838,0.246078
16.120,961980,0.421380,1.182736,2.264915,0.041435,0.033974,0.363588
16.140,962000,0.119710,1.326388,1.944092,0.065816,0.087400,0.429138
16.160,962020,1.446098,1.867477,2.240973,0.175599,-0.232622,0.484029
16.180,962040,6.057330,5.085284,5.152322,0.253139,-0.773674,0.456583
16.200,962060,17.884687,6.947973,7.829040,0.436332,-0.912368,0.098724
16.220,962080,11.860875,5.386954,6.167464,0.302035,-0.066083,0.638044
16.240,962100,12.382812,7.436390,8.911219,0.255538,-0.703061,0.502548
16.260,962120,20.853497,9.945514,10.117896,0.314959,-0.714919,0.124038
16.280,962140,17.894264,9.715671,10.036493,0.186790,-0.057289,-0.042900
16.300,962160,13.555970,9.270349,9.993398,0.047430,0.268594,-0.340006
16.320,962180,12.148179,7.963115,8.226477,0.069413,0.507878,-0.631649
16.340,962200,10.405201,5.813122,5.861006,0.089398,0.668421,-0.642974
16.360,962220,7.718906,3.830723,4.601655,0.075142,0.593012,-0.454985
16.380,962240,5.444415,2.145205,3.672705,0.062752,0.432069,-0.204910
16.400,962260,3.567361,1.230620,2.959233,-0.137361,0.480165,0.035173
16.420,962280,1.508347,0.344765,1.896208,-0.092596,0.208507,0.227825
16.440,962300,1.757344,0.416591,1.493982,-0.135096,-0.111914,0.354395
16.460,962320,2.815581,0.818817,1.613692,-0.154548,-0.373714,0.364654
16.480,962340,2.825158,0.914585,1.900996,-0.215168,-0.443793,0.326949
16.500,962360,1.455675,0.469264,2.169147,-0.169603,-0.589681,0.291643
16.520,962380,1.728614,0.976834,3.102885,-0.174933,-0.846685,0.268994
16.540,962400,9.361329,4.223372,6.330269,-0.266729,-1.603038,0.047297
16.560,962420,17.113754,5.516241,7.589619,-0.173467,-1.195617,-0.102988
16.580,962440,10.457873,5.458780,7.570466,-0.331613,-0.550911,0.154282
16.600,962460,17.041927,8.532935,8.437167,-0.130567,-1.209340,0.204377
16.620,962480,23.046585,10.218452,10.285490,-0.016387,-0.883323,-0.098724
16.640,962500,15.662868,7.852982,10.362105,-0.221963,0.131100,-0.079406
16.660,962520,12.579136,6.531382,9.169792,-0.242614,0.576625,-0.090464
16.680,962540,11.903971,5.516241,6.196194,-0.238484,0.780868,-0.209040
16.700,962560,9.672575,4.453215,4.491522,-0.242081,0.826700,-0.319222
16.720,962580,7.311892,2.940080,3.251326,-0.091263,0.657096,-0.332412
16.740,962600,5.808333,1.920150,2.676718,-0.107384,0.520934,-0.208640
16.760,962620,3.217807,0.703895,1.493982,-0.122573,0.424075,-0.047297
16.780,962640,1.479617,0.296881,1.388637,-0.076075,0.300969,0.105119
16.800,962660,0.876278,0.186748,1.015141,-0.081804,0.258735,0.281384
16.820,962680,1.010353,0.972046,1.561020,0.003331,0.011591,0.364387
16.840,962700,1.853112,1.039083,1.814805,0.088732,-0.023182,0.363988
16.860,962720,0.881066,0.957681,1.407791,0.074210,0.035306,0.420611
16.880,962740,0.579397,1.479617,1.824382,0.139493,-0.162675,0.530660
16.900,962760,6.665458,5.157111,5.137957,0.132832,-0.788729,0.473104
16.920,962780,19.172768,6.052542,6.617573,0.319755,-1.103155,0.261533
16.940,962800,12.665327,4.970363,5.363012,0.196250,-0.235686,0.716917
16.960,962820,15.308526,7.196970,7.924808,0.144289,-0.943810,0.562103
16.980,962840,22.424093,11.042058,8.906430,0.012524,-0.729574,0.124971
17.000,962860,19.378668,10.424355,9.184157,-0.002398,-0.039703,-0.089132
17.020,962880,14.350845,9.074024,8.724471,-0.089798,0.464711,-0.545049
17.040,962900,11.894394,7.019799,6.823475,-0.140559,0.664158,-0.930753
17.060,962920,9.773131,4.850653,4.410120,-0.100190,0.787930,-0.920361
17.080,962940,7.249643,2.758120,3.711013,0.124571,0.888786,-0.597542
17.100,962960,4.429273,1.235408,2.968810,-0.008660,0.829897,-0.337475
17.120,962980,2.078167,0.301669,1.972822,-0.197049,0.552377,-0.169737
17.140,963000,0.919373,-0.162806,1.201889,-0.396363,0.344270,-0.033841
17.160,963020,1.479617,0.138864,0.972046,-0.397429,-0.053825,0.000933
17.180,963040,3.677494,0.986411,1.403002,-0.435666,-0.386371,-0.036505
17.200,963060,3.232172,0.708684,1.517924,-0.389035,-0.518936,0.011991
17.220,963080,1.580173,0.507571,2.557007,-0.449256,-0.693469,0.044766
17.240,963100,4.491522,1.666364,4.448427,-0.581954,-1.019485,-0.078473
17.260,963120,14.149732,4.395754,6.497863,-0.943144,-1.660727,-0.425141
17.280,963140,16.294937,5.166687,4.520253,-0.773008,-1.100623,-0.080605
17.300,963160,12.354081,5.923255,6.856994,-0.511342,-0.969257,0.242214
17.320,963180,18.081011,8.877700,9.318233,-0.432868,-1.056257,-0.114579
17.340,963200,19.800049,9.002198,10.663774,-0.341871,-0.302435,-0.326150
17.360,963220,13.690045,7.029376,10.371682,-0.361456,0.691737,-0.397695
17.380,963240,11.908759,6.430826,8.427590,-0.383573,1.268761,-0.655498
17.400,963260,11.200075,5.477933,5.846641,-0.366253,1.406522,-0.769810
17.420,963280,9.696517,4.328717,4.036624,-0.064484,1.175233,-0.624322
17.440,963300,7.575254,3.375824,3.380613,-0.149352,1.061853,-0.400093
17.460,963320,5.013458,1.824382,2.389413,-0.105119,0.824168,-0.123239
17.480,963340,2.533065,0.723049,1.762132,0.004263,0.337342,0.124571
17.500,963360,1.790863,0.263362,1.288081,-0.082337,0.267662,0.288446
17.520,963380,1.144428,0.258574,1.374272,0.005329,0.092196,0.374247
17.540,963400,1.403002,0.852336,1.924938,-0.009726,-0.025847,0.369583
17.560,963420,1.407791,0.780510,1.642422,0.097659,-0.077274,0.350931
17.580,963440,0.938527,0.689530,1.503559,0.134031,-0.163075,0.433668
17.600,963460,2.327164,2.063802,2.806004,0.094727,-0.371182,0.492156
17.620,963480,10.850522,5.870583,6.531382,0.102188,-0.913966,0.233821
17.640,963500,17.846380,6.464345,4.754885,0.295374,-0.438464,0.177864
17.660,963520,11.779472,5.339070,6.335058,0.342005,-0.207041,0.688806
17.680,963540,16.352398,8.245630,9.428367,0.298305,-0.547181,0.416747
17.700,963560,21.744141,10.812215,9.040505,0.116844,-0.169337,0.104320
17.720,963580,16.601395,10.127473,8.652645,0.380508,0.326550,0.007461
17.740,963600,11.329363,8.925584,8.652645,0.586617,0.841888,-0.485495
17.760,963620,10.017340,6.876147,6.833052,0.444459,1.177631,-0.937681
17.780,963640,8.034941,4.041412,4.333505,0.548646,0.932086,-1.006162
17.800,963660,6.521805,2.753332,3.974375,0.003597,1.005363,-0.790994
17.820,963680,4.309563,1.417367,2.853889,-0.039969,0.637112,-0.539453
17.840,963700,2.935291,0.622492,2.485181,-0.200113,0.557972,-0.229557
17.860,963720,1.900996,0.282516,1.671153,-0.295507,0.314692,0.046098
17.880,963740,2.504335,0.790087,1.589750,-0.232622,-0.117110,0.236485
17.900,963760,2.494758,1.503559,1.857901,-0.228092,-0.260201,0.329081
17.920,963780,1.675941,1.393425,2.370260,-0.127236,-0.371582,0.288579
17.940,963800,0.847547,0.713472,2.489970,-0.059021,-0.471106,0.254338
17.960,963820,4.625597,3.275268,4.788404,-0.142691,-0.900110,0.157346
17.980,963840,15.591042,6.019023,7.642292,-0.051161,-1.412384,-0.274057
18.000,963860,12.243947,3.974375,6.263232,-0.168138,-0.338274,0.115378
18.020,963880,12.081141,6.895301,7.857770,-0.250208,-0.843087,0.327749
18.040,963900,18.842367,10.658986,9.849746,-0.292309,-0.805250,-0.067015
18.060,963920,18.502390,10.089166,11.209652,-0.319755,-0.195051,-0.504813
18.080,963940,12.761095,8.135497,11.238382,-0.450988,0.474170,-0.504813
18.100,963960,13.589489,7.484274,9.016563,-0.436732,0.979916,-0.581821
18.120,963980,11.722012,5.942409,5.913678,-0.377577,1.178564,-0.505213
18.140,964000,8.379706,4.788404,4.802769,-0.416214,1.277021,-0.448723
18.160,964020,5.889736,3.576937,3.538630,-0.231956,1.007495,-0.436066
18.180,964040,4.663905,2.600103,4.568137,0.034507,0.446591,-0.343070
18.200,964060,2.954445,0.938527,2.087744,-0.231956,0.781268,-0.217300
18.220,964080,1.393425,0.167594,1.853112,-0.117243,0.294708,-0.014389
18.240,964100,1.374272,0.196325,1.307234,-0.090464,0.076342,0.184525
18.260,964120,1.733402,0.991199,1.814805,-0.039170,-0.126836,0.347734
18.280,964140,1.403002,1.010353,2.169147,-0.078340,0.008793,0.418213
18.300,964160,0.588974,0.900220,1.953669,-0.007061,-0.102322,0.470306
18.320,964180,2.078167,2.030283,2.892196,-0.013190,-0.419945,0.574227
18.340,964200,9.414001,6.732495,6.574478,0.026247,-1.046531,0.459914
18.360,964220,17.343597,7.551312,5.827487,0.197315,-0.437398,0.178397
18.380,964240,10.180145,6.454768,6.555324,0.307897,-0.094594,0.523865
18.400,964260,14.733917,8.480263,10.338163,0.360657,-0.431136,0.179729
18.420,964280,18.962078,10.481815,10.721235,0.006928,0.195317,-0.199314
18.440,964300,13.924677,10.548853,11.032481,0.051427,0.911168,-0.494954
18.460,964320,12.014104,9.318233,9.916783,0.022783,1.053726,-1.180562
18.480,964340,11.975797,7.168240,6.531382,-0.069680,1.024149,-1.329248
18.500,964360,9.279925,5.612009,4.936844,-0.045965,0.836825,-1.002698
18.520,964380,5.966351,3.931279,4.654328,-0.071279,0.573294,-0.666156
18.540,964400,3.586514,2.504335,4.036624,-0.174933,0.358259,-0.396096
18.560,964420,1.929727,1.455675,2.590526,-0.339340,0.276055,-0.136828
18.580,964440,1.455675,1.307234,2.011129,-0.375046,-0.098191,0.109783
18.600,964460,1.977611,1.225831,1.647211,-0.274057,-0.488026,0.182660
18.620,964480,2.164358,1.331176,1.824382,-0.332812,-0.626587,0.231556
18.640,964500,1.786075,1.235408,2.293645,-0.207841,-0.786997,0.269394
18.660,964520,0.842759,1.039083,3.059790,-0.108450,-0.820571,0.335343
18.680,964540,4.927267,3.653552,5.789180,-0.242214,-1.206942,0.190521
18.700,964560,11.808203,4.395754,7.450756,-0.461247,-1.405057,-0.201046
18.720,964580,12.775460,4.821922,6.502652,-0.829498,-1.161910,0.114312
18.740,964600,13.776237,8.020576,8.312668,-0.560504,-1.054126,0.198115
18.760,964620,19.029116,11.089942,11.458650,-0.430870,-1.002832,-0.096459
18.780,964640,17.281347,9.399636,11.865664,-0.437531,-0.249009,-0.164274
18.800,964660,12.761095,8.106767,11.228806,-0.264198,0.585685,-0.167605
18.820,964680,13.991714,7.876924,9.021352,-0.077807,0.872931,-0.377311
18.840,964700,12.655750,6.248867,6.574478,-0.018386,1.011092,-0.333611
18.860,964720,8.293514,4.347870,5.415684,0.060753,0.988842,-0.162809
18.880,964740,4.745308,2.954445,4.333505,0.247011,0.533724,-0.084202
18.900,964760,3.462016,2.240973,3.533842,-0.150152,0.601006,0.002931
18.920,964780,2.035071,0.972046,1.508347,0.027712,0.182660,0.076475
18.940,964800,1.450886,0.459687,1.340753,-0.157746,0.061819,0.256470
18.960,964820,1.364695,0.229843,1.158794,-0.018519,-0.314159,0.398361
18.980,964840,1.953669,0.948104,1.714248,-0.019718,-0.411152,0.528395
19.000,964860,0.751779,0.957681,1.800440,0.045165,-0.297905,0.622057
19.020,964880,0.019154,1.498770,2.403779,0.068614,-0.355861,0.647904
19.040,964900,2.992752,4.041412,4.754885,-0.014655,-0.540919,0.520534
19.060,964920,14.049175,6.497863,6.703765,0.123372,-0.958466,0.139626
19.080,964940,13.335704,5.190629,3.892972,0.239283,0.011991,0.590614
19.100,964960,12.287044,6.224925,7.843405,0.259268,-0.721314,0.703727
19.120,964980,18.818426,9.265560,9.476251,0.051028,-0.919695,0.367319
19.140,965000,18.334797,9.691729,9.227253,0.005196,-0.224761,0.350531
19.160,965020,14.815320,9.639056,9.088389,0.125504,0.133231,0.125237
19.180,965040,13.551182,8.983045,7.785944,0.334943,0.413816,-0.288579
19.200,965060,12.440272,6.828263,6.248867,0.387436,0.649769,-0.387969
19.220,965080,9.797073,4.390966,4.836287,0.503747,0.710389,-0.223962
19.240,965100,7.077260,2.466028,3.821146,0.344669,0.695201,-0.019985
19.260,965120,3.701436,1.623269,2.901772,-0.020118,0.203577,0.107651
19.280,965140,1.910573,0.598550,1.522712,-0.200247,0.079139,0.234753
19.300,965160,0.905008,0.344765,0.938527,-0.241149,-0.270726,0.341738
19.320,965180,1.604115,0.598550,1.091756,-0.247011,-0.595410,0.354662
19.340,965200,2.188300,1.125275,1.637634,-0.192386,-0.712920,0.302035
19.360,965220,1.805228,1.024718,2.015918,-0.192519,-0.664557,0.283516
19.380,965240,1.383849,0.675165,2.365471,-0.142291,-0.755688,0.307364
19.400,965260,4.960786,2.700660,4.367024,-0.273790,-1.012824,0.252340
19.420,965280,17.539921,5.487510,6.550536,-0.134164,-1.512175,-0.178130
19.440,965300,13.239936,3.572149,6.320693,-0.252740,-0.437398,0.277654
19.460,965320,10.922348,5.339070,7.589619,-0.352263,-0.563035,0.498418
19.480,965340,21.370644,9.437943,8.767567,-0.194518,-0.808181,0.290311
19.500,965360,22.433670,9.385271,10.055647,-0.209706,-0.076075,-0.043433
19.520,965380,12.526464,7.134721,9.926360,-0.346934,0.628452,-0.201446
19.540,965400,12.181698,6.311116,8.135497,-0.151750,0.828032,-0.406622
19.560,965420,11.956643,5.008670,5.123591,-0.103254,0.893982,-0.509077
19.580,965440,9.414001,4.137180,4.122815,-0.273790,1.029611,-0.509876
19.600,965460,6.392519,2.528277,2.671929,-0.083669,0.708391,-0.359325
19.620,965480,4.295198,1.771709,2.398990,-0.168404,0.714253,-0.110182
19.640,965500,1.833959,0.660800,1.221043,-0.091397,0.547047,0.079939
19.660,965520,1.182736,0.632069,1.383849,-0.052893,0.251274,0.249809
19.680,965540,1.010353,0.861913,1.522712,0.074077,-0.000666,0.281118
19.700,965560,1.675941,1.086968,2.173935,0.078740,-0.084069,0.276988
19.720,965580,1.235408,0.818817,1.747767,0.058755,-0.020384,0.340672
19.740,965600,0.914585,0.991199,1.493982,0.066083,-0.112181,0.455251
19.760,965620,2.576161,3.150769,2.466028,0.148420,-0.469240,0.537322
19.780,965640,13.187263,6.325481,6.497863,0.420611,-1.522700,0.281917
19.800,965660,20.317196,5.645528,4.912902,0.577424,-0.375979,0.375046
19.820,965680,10.261548,4.007894,5.430049,0.115511,-0.304700,0.733971
19.840,965700,18.023550,7.881712,7.661446,0.181328,-1.093962,0.614596
19.860,965720,23.367409,10.539276,8.408437,0.194651,-0.449256,0.215701
19.880,965740,15.155296,8.729259,7.939173,-0.073544,0.452720,-0.071545
19.900,965760,12.717999,8.350976,6.770802,-0.055557,0.532259,-0.640576
19.920,965780,12.004527,6.550536,4.726154,0.072611,0.680012,-0.913567
19.940,965800,9.615114,3.514688,3.471592,0.086867,0.721314,-0.764747
19.960,965820,7.091625,2.078167,3.007117,-0.050894,0.753689,-0.487893
19.980,965840,3.677494,0.780510,2.130840,-0.084469,0.610865,-0.217300
20.000,965860,0.890643,0.349553,1.843535,-0.188122,0.480299,-0.012124
20.020,965880,0.421380,0.517148,1.383849,-0.264997,0.292576,0.007994
20.040,965900,2.600103,0.928950,1.139640,-0.121507,-0.155614,-0.011991
20.060,965920,3.251326,0.909797,1.259350,-0.101789,-0.236086,0.097392
20.080,965940,1.771709,0.445322,1.848324,-0.066616,-0.260734,0.235819
20.100,965960,1.594538,0.646434,2.896984,-0.116178,-0.517870,0.279786
20.120,965980,8.767567,2.892196,4.812346,-0.156946,-1.304867,0.025181
20.140,966000,17.721882,4.793192,5.401319,-0.088865,-1.225194,-0.016787
20.160,966020,10.907983,4.563348,6.076484,-0.343204,-0.308164,0.466842
20.180,966040,11.563994,6.397307,6.129156,-0.319222,-0.718250,0.201845
20.200,966060,22.203827,10.342952,8.063671,0.020784,-1.120208,-0.374380
20.220,966080,20.604500,8.719683,9.634268,-0.079273,0.178530,-0.430470
20.240,966100,14.135366,5.937620,9.380483,-0.330547,0.828565,-0.368251
20.260,966120,14.058752,5.683835,7.082048,-0.491090,1.047730,-0.485894
20.280,966140,12.157756,4.955997,5.027823,-0.567299,1.248377,-0.520934
20.300,966160,9.830592,3.797204,3.749320,-0.488692,1.116611,-0.507744
20.320,966180,7.431602,2.068590,2.145205,-0.158812,0.587017,-0.379309
20.340,966200,4.692636,1.503559,1.996764,-0.517204,0.831096,-0.100856
20.360,966220,2.006341,0.416591,1.417367,-0.237551,0.414349,0.050894
20.380,966240,0.995988,-0.153229,0.976834,-0.187723,0.184126,0.191054
20.400,966260,2.015918,0.033519,0.943315,-0.183326,-0.061686,0.275522
20.420,966280,2.983175,0.191536,0.636858,-0.115511,-0.178796,0.405556
20.440,966300,1.249773,0.497994,0.416591,-0.011591,-0.191720,0.601139
20.460,966320,-0.703895,1.484405,1.441309,-0.073544,-0.148553,0.630051
20.480,966340,-0.354342,2.336741,2.466028,0.001066,-0.125104,0.347334
20.500,966360,10.979809,5.516241,6.718130,0.105119,-0.762882,-0.253139
20.520,966380,19.335573,5.741296,4.453215,-0.215968,-0.088998,-0.242481
20.540,966400,11.377247,5.425261,7.393295,-0.260734,-0.112847,0.342671
20.560,966420,18.861521,9.193734,11.042058,-0.274723,-0.272991,-0.084735
20.580,966440,22.778435,11.707646,10.352529,-0.505080,0.043433,-0.545848
20.600,966460,15.792154,9.706094,9.926360,-0.419945,0.457383,-0.722646
20.620,966480,14.384364,8.441956,8.058883,-0.097259,0.656830,-0.922760
20.640,966500,12.914324,6.454768,5.549759,0.116711,0.627386,-0.751824
20.660,966520,9.327810,4.649539,4.491522,0.130966,0.602871,-0.456850
20.680,966540,5.329493,3.136404,3.610456,0.150418,0.477234,-0.289778
20.700,966560,2.820370,1.872266,2.815581,0.205842,0.259268,-0.224495
20.720,966580,1.833959,0.933739,1.963245,0.021983,0.333345,-0.115511
20.740,966600,1.345541,0.167594,1.211466,-0.164807,0.319089,0.044899
20.760,966620,0.751779,0.086191,1.216254,-0.119642,-0.023982,0.216101
20.780,966640,1.197101,0.761356,2.059013,-0.162942,-0.208640,0.272458
20.800,966660,2.020706,0.967257,2.528277,-0.119642,-0.291110,0.283383
20.820,966680,1.714248,0.751779,2.782062,-0.133631,-0.348400,0.368384
20.840,966700,4.568137,3.107674,5.540183,-0.271658,-0.746894,0.240616
20.860,966720,17.041927,5.592855,6.876147,-0.084735,-1.221997,-0.213303
20.880,966740,12.291832,4.525041,5.511452,-0.183859,-0.337741,0.406355
20.900,966760,11.865664,7.019799,7.297527,-0.115511,-0.763148,0.456317
20.920,966780,19.723434,9.677363,9.203311,0.118309,-0.981914,0.044366
20.940,966800,20.757729,8.149862,9.763555,0.137761,-0.284848,0.015055
20.960,966820,15.945383,6.382942,9.658210,-0.060887,0.251141,0.256204
20.980,966840,15.030798,5.971139,8.188169,-0.125504,0.499084,0.164008
21.000,966860,13.196839,5.329493,6.301539,-0.212504,0.765147,0.008926
21.020,966880,9.131485,4.079720,4.841076,-0.044366,0.893982,-0.083669
21.040,966900,5.592855,2.844312,3.873818,0.208107,0.939014,-0.138960
21.060,966920,3.620033,2.035071,3.174711,-0.024648,0.751824,-0.175066
21.080,966940,1.829170,0.770933,1.537078,-0.080338,0.634047,-0.119908
21.100,966960,0.828394,-0.105345,0.814029,0.015322,0.204243,0.004130
21.120,966980,1.000776,0.268151,1.221043,0.026247,-0.042767,0.141225
21.140,967000,1.953669,0.972046,1.824382,0.083669,-0.149619,0.172268
21.160,967020,0.804452,0.924162,1.996764,0.111515,-0.015188,0.181861
21.180,967040,-0.253785,1.134852,2.221819,0.010259,0.151351,0.195583
21.200,967060,2.078167,2.202666,3.643975,0.069413,-0.175998,0.169204
21.220,967080,12.727576,4.534618,6.311116,0.246345,-1.055724,-0.026247
21.240,967100,17.707516,5.827487,4.347870,0.184658,-0.316424,0.306032
21.260,967120,9.471462,5.650316,6.694188,0.111381,-0.190254,0.752623
21.280,967140,15.485697,7.536947,8.801085,0.281917,-0.693735,0.446325
21.300,967160,24.272417,9.792285,8.097190,0.221164,-0.455784,0.229691
21.320,967180,18.420988,9.399636,7.963115,0.084469,0.091263,0.216234
21.340,967200,13.206416,8.777143,7.685388,0.061153,0.221164,-0.308031
21.360,967220,11.329363,6.598420,6.052542,0.069946,0.454851,-0.701596
21.380,967240,10.266336,4.266468,4.424485,0.017986,0.620591,-0.645239
21.400,967260,7.560889,2.638410,3.236961,-0.024914,0.615928,-0.367319
21.420,967280,4.362236,1.599327,2.513912,-0.088466,0.520401,-0.136429
21.440,967300,2.121263,0.723049,1.565808,-0.153083,0.454319,-0.061686
21.460,967320,1.244985,0.067038,1.182736,-0.295107,0.380242,-0.023582
21.480,967340,1.556231,0.201113,0.837971,-0.204910,-0.030643,-0.001466
21.500,967360,3.198653,1.168370,1.489193,-0.196516,-0.315358,-0.001466
21.520,967380,2.657564,0.833182,2.039860,-0.172668,-0.275522,-0.027046
21.540,967400,0.885855,0.320823,2.533065,-0.131899,-0.387836,-0.016654
21.560,967420,6.531382,3.059790,5.228937,-0.310828,-1.071845,-0.186391
21.580,967440,16.026787,4.429273,6.181829,-0.280319,-1.169504,-0.321887
21.600,967460,11.147403,4.046201,6.670246,-0.454985,-0.338274,0.279253
21.620,967480,11.889606,6.517017,7.675811,-0.348799,-0.715985,0.201446
21.640,967500,19.958065,10.194510,9.275137,-0.190920,-0.941545,-0.181594
21.660,967520,20.331560,9.567230,10.314221,-0.148553,-0.090064,-0.261400
21.680,967540,13.718776,6.880936,10.271125,-0.317623,0.478034,-0.320821
21.700,967560,14.264654,5.750873,8.116343,-0.375579,0.690671,-0.480832
21.720,967580,12.856863,4.783615,5.588067,-0.416214,0.850681,-0.357859
21.740,967600,8.935161,3.902549,4.405331,-0.332412,0.715452,-0.264198
21.760,967620,5.482722,3.217807,3.136404,-0.064351,0.359724,-0.307498
21.780,967640,3.462016,2.432509,2.762909,-0.405956,0.671619,-0.341472
21.800,967660,2.102109,1.072602,1.963245,-0.299770,0.382374,-0.322686
21.820,967680,1.843535,0.660800,1.091756,-0.310562,0.115778,-0.112847
21.840,967700,0.162806,0.483629,1.101333,-0.244479,-0.008527,0.094594
21.860,967720,0.143652,1.187524,1.991976,-0.303501,-0.058222,0.142291
21.880,967740,1.039083,1.283292,1.584962,-0.194251,-0.024381,0.114312
21.900,967760,1.206678,1.489193,1.565808,-0.102455,0.031576,0.162409
21.920,967780,3.380613,3.174711,3.854665,-0.119242,-0.266462,0.179729
21.940,967800,14.460979,5.865794,6.406884,-0.174266,-0.987643,-0.022783
21.960,967820,13.934254,4.639963,4.209007,-0.670286,-0.558106,0.247677
21.980,967840,12.119449,6.038177,7.345411,-0.270326,-0.385971,0.438331
22.000,967860,17.228676,8.288726,8.705317,-0.075276,-0.377444,0.119775
22.020,967880,20.345926,10.386047,9.385271,-0.626853,-0.400227,-0.216234
22.040,967900,15.581465,9.332599,9.457097,-0.149352,0.382640,-0.273124
22.060,967920,13.828909,8.863335,8.259995,0.050361,0.758885,-0.617260
22.080,967940,12.373235,7.000646,5.736507,0.306698,0.954602,-0.646838
22.100,967960,8.810662,4.290410,4.592079,0.373980,0.936083,-0.441662
22.120,967980,5.856217,2.284068,3.955221,0.219832,0.671485,-0.255005
22.140,968000,4.137180,1.326388,3.509900,0.000933,0.573960,-0.084735
22.160,968020,2.082955,0.469264,2.494758,-0.172268,0.337475,0.016920
22.180,968040,1.091756,0.363919,1.886631,-0.352796,0.229824,0.123772
22.200,968060,0.363919,0.268151,1.905785,-0.322686,0.044233,0.180129
22.220,968080,1.733402,0.670376,2.489970,-0.265530,-0.247410,0.146688
22.240,968100,2.662352,0.612916,2.547431,-0.183859,-0.350531,0.159877
22.260,968120,1.695095,0.517148,3.347094,-0.184658,-0.464577,0.196516
22.280,968140,6.617573,3.385401,6.727707,-0.535723,-1.116744,-0.082870
22.300,968160,18.617311,6.239290,6.421249,-0.404757,-1.411319,-0.485894
22.320,968180,12.799402,5.023035,7.216124,-0.175466,-0.499617,0.244346
22.340,968200,12.186486,7.096414,8.954314,-0.233688,-0.809380,0.342005
22.360,968220,20.547039,10.405201,10.826580,-0.183726,-0.725178,-0.102988
22.380,968240,17.961302,7.910442,11.314998,-0.048496,0.213303,-0.090064
22.400,968260,13.263878,6.440403,10.146626,-0.202112,0.661760,0.007328
22.420,968280,13.618219,6.421249,7.067683,-0.119508,0.857343,-0.158412
22.440,968300,11.841722,4.955997,4.841076,0.217567,1.002165,-0.120708
22.460,968320,8.729259,3.160346,3.720589,0.312560,0.900244,-0.042234
22.480,968340,5.099649,2.331953,3.639187,0.185458,0.093928,-0.098591
22.500,968360,2.920926,1.067814,2.403779,-0.099390,0.073544,-0.083270
22.520,968380,0.138864,0.488417,1.537078,-0.118309,0.045698,0.023715
22.540,968400,-0.861913,0.656011,1.278504,-0.100723,0.096593,0.120308
22.560,968420,0.014365,1.019930,1.350330,0.106585,-0.067282,0.071412
22.580,968440,2.255338,1.082179,1.441309,0.110715,0.017187,0.053026
22.600,968460,1.872266,0.541090,1.154005,0.144556,-0.029311,0.201446
22.620,968480,0.995988,1.067814,1.800440,0.113113,-0.180795,0.399427
22.640,968500,4.764462,4.548983,4.869806,0.041701,-0.525464,0.372648
22.660,968520,16.223110,6.397307,7.235278,0.222496,-0.753423,0.030510
22.680,968540,12.358870,5.023035,4.855441,0.076874,0.227959,0.417280
22.700,968560,13.177686,6.392519,7.484274,0.119642,-0.479100,0.310296
22.720,968580,22.342690,9.552865,8.796297,0.084069,-0.789129,0.195317
22.740,968600,19.800049,9.442732,8.920795,0.170669,0.005462,0.313893
22.760,968620,14.020445,8.805874,9.246407,0.074876,0.374247,0.036505
22.780,968640,12.516887,8.092402,7.709330,0.121507,0.608600,-0.458982
22.800,968660,11.429919,5.884948,5.300763,0.244479,0.669753,-0.573294
22.820,968680,9.064447,3.596091,3.921702,0.329348,0.551311,-0.369717
22.840,968700,6.244078,2.360683,3.380613,0.188522,0.497352,-0.086734
22.860,968720,3.275268,1.039083,2.604892,0.118975,0.356793,0.056090
22.880,968740,1.302446,0.205901,1.934515,0.016121,0.223429,0.140026
22.900,968760,0.129287,-0.028730,1.623269,-0.112447,0.073544,0.193851
22.920,968780,0.952892,0.483629,1.781286,-0.142824,-0.138427,0.190121
22.940,968800,2.767697,0.952892,2.284068,-0.197449,-0.186391,0.161343
22.960,968820,1.910573,0.459687,2.035071,-0.104187,-0.190121,0.176798
22.980,968840,2.121263,1.771709,3.778050,-0.167605,-0.467109,0.146421
23.000,968860,12.473791,5.219360,7.105990,-0.231289,-1.306998,-0.285248
23.020,968880,17.559074,4.659117,5.726931,-0.331080,-0.615795,-0.305366
23.040,968900,10.395624,4.429273,6.181829,-0.438464,-0.491623,0.175599
23.060,968920,15.610195,8.240842,7.790732,-0.333078,-0.971789,0.125371
23.080,968940,21.815966,10.050858,10.146626,-0.132832,-0.779936,-0.244213
23.100,968960,15.188815,7.876924,11.319786,-0.327216,0.325217,-0.201179
23.120,968980,11.046846,5.942409,10.409989,-0.514406,0.972721,-0.334277
23.140,969000,12.445061,5.573701,7.302315,-0.513074,1.052127,-0.537721
23.160,969020,11.511322,4.390966,4.568137,-0.360391,0.885855,-0.483230
23.180,969040,8.753201,3.706224,3.682282,-0.308564,0.716384,-0.276322
23.200,969060,5.664681,2.834735,3.155558,-0.152550,0.325351,-0.093928
23.220,969080,3.112462,1.814805,2.288857,-0.188122,0.262199,0.047963
23.240,969100,0.723049,0.905008,1.920150,-0.115245,0.135629,0.136962
23.260,969120,-0.469264,0.536301,2.135628,-0.126436,0.103654,0.155081
23.280,969140,0.124498,0.497994,2.183512,-0.055158,0.077674,0.162276
23.300,969160,1.719037,0.646434,1.714248,-0.024648,0.055691,0.280452
23.320,969180,1.776498,0.933739,1.201889,0.027712,0.145489,0.484695
23.340,969200,0.727837,1.867477,2.059013,0.098724,0.016387,0.591280
23.360,969220,4.103662,4.295198,4.754885,0.141225,-0.514539,0.460714
23.380,969240,15.586253,5.329493,6.904878,0.202778,-1.355095,0.048230
23.400,969260,13.958196,4.481946,3.284845,0.375979,-0.142025,0.701196
23.420,969280,10.692505,5.224148,7.431602,0.059021,-0.602605,0.771009
23.440,969300,18.128895,8.336611,8.494628,-0.075009,-1.144190,0.192652
23.460,969320,23.386562,11.473015,8.638280,-0.180528,-0.675349,-0.218233
23.480,969340,16.347609,10.070012,9.662998,0.008394,0.281251,-0.242348
23.500,969360,14.245501,8.676587,8.087613,-0.094861,0.476035,-0.733305
23.520,969380,14.207192,6.866570,5.219360,0.029044,0.549046,-0.790195
23.540,969400,11.056423,4.558560,4.156334,0.219832,0.787930,-0.415548
23.560,969420,5.928043,2.327164,3.529053,0.316824,0.580888,-0.154815
23.580,969440,3.725378,1.470040,3.184288,0.022516,0.479233,0.004130
23.600,969460,1.752556,0.392649,2.044648,-0.031309,0.319089,0.094194
23.620,969480,0.392649,-0.397437,1.872266,-0.138694,0.307364,0.179196
23.640,969500,1.939303,0.081403,1.905785,-0.262732,-0.340139,0.133897
23.660,969520,3.720589,0.909797,1.570596,-0.340672,-0.471505,0.133764
23.680,969540,1.680730,0.550666,2.059013,-0.260867,-0.347201,0.200247
23.700,969560,0.598550,0.383072,3.232172,-0.345868,-0.457250,0.146288
23.720,969580,5.918467,1.958457,4.884171,-0.579822,-0.953936,-0.135496
23.740,969600,15.380352,4.352659,5.238513,-0.747028,-1.506312,-0.293375
23.760,969620,14.695610,5.204995,4.812346,-0.344136,-0.620858,0.321221
23.780,969640,11.492168,5.928043,7.340622,-0.369317,-0.606069,0.438198
23.800,969660,19.383457,8.963891,8.633492,-0.089798,-0.782067,0.057556
23.820,969680,19.776106,7.948750,9.653421,-0.087000,-0.035573,-0.062752
23.840,969700,14.489709,6.603208,9.768343,-0.259801,0.481231,-0.115911
23.860,969720,13.378799,5.980716,7.728483,-0.310562,0.724512,-0.373447
23.880,969740,12.009315,4.596867,5.118803,-0.221031,0.796590,-0.393432
23.900,969760,9.955091,3.462016,3.916914,-0.246877,0.739567,-0.298438
23.920,969780,7.441179,1.781286,2.849100,-0.249009,0.527596,-0.144956
23.940,969800,3.059790,0.172383,0.981623,-0.080338,0.095926,0.108317
23.960,969820,0.976834,0.057461,1.369483,-0.453919,0.525997,0.397429
23.980,969840,-0.019154,0.095768,1.422156,-0.244479,0.409686,0.440329
24.000,969860,1.570596,0.608127,1.010353,-0.157080,0.556640,0.360257
24.020,969880,2.408567,0.646434,0.957681,0.092596,0.461380,0.255271
24.040,969900,2.628834,1.072602,1.273715,0.085268,0.521600,0.284982
24.060,969920,1.747767,1.173159,1.575385,0.322153,0.420345,0.405023
24.080,969940,4.027047,2.920926,4.242526,0.514672,0.052760,0.401426
24.100,969960,15.816096,6.066907,6.957550,0.563035,-0.957000,-0.039037
24.120,969980,15.476120,4.338294,4.232949,0.328548,0.007061,0.385704
24.140,970000,8.796297,4.256891,7.168240,0.369850,-0.226626,0.707991
24.160,970020,14.829685,7.158663,9.940725,0.345602,-0.659894,0.364787
24.180,970040,23.769634,10.175357,9.581595,0.139227,-0.231289,0.006662
24.200,970060,17.889475,9.169792,9.519346,0.156147,0.282450,-0.240349
24.220,970080,13.603854,8.216900,8.853758,0.174400,0.368784,-0.649769
24.240,970100,12.287044,6.579266,6.258443,0.250342,0.523332,-0.846818
24.260,970120,9.471462,4.046201,4.596867,0.365054,0.517470,-0.730507
24.280,970140,6.718130,2.097321,4.012682,0.163874,0.575159,-0.492023
24.300,970160,3.854665,1.063026,3.131616,0.033574,0.334943,-0.177331
24.320,970180,2.001553,0.368707,1.790863,-0.279253,0.486827,0.053026
24.340,970200,1.024718,0.186748,1.197101,-0.204910,0.144289,0.156813
24.360,970220,2.073379,0.991199,0.967257,-0.138694,-0.155481,0.111781
24.380,970240,2.758120,1.225831,1.786075,-0.082470,-0.314692,-0.038637
24.400,970260,1.905785,0.387861,1.953669,-0.099257,-0.216900,-0.081671
24.420,970280,1.465251,0.138864,2.585738,-0.164141,-0.358925,0.014522
24.440,970300,7.709330,2.715025,5.817910,-0.289112,-1.080905,-0.066349
24.460,970320,16.543934,4.237737,6.770802,-0.494954,-0.961397,-0.188389
24.480,970340,10.927136,4.922479,5.717354,-0.632582,-0.197315,0.226893
24.500,970360,11.947066,7.570466,7.450756,-0.342804,-0.609533,0.025980
24.520,970380,21.566969,9.787497,9.643845,-0.012657,-0.898511,-0.304833
24.540,970400,18.799273,7.829040,10.108319,-0.175865,0.178663,-0.145755
24.560,970420,13.000515,6.287174,10.975020,-0.311761,0.658162,-0.178930
24.580,970440,12.646173,5.348647,8.810662,-0.315225,0.998035,-0.389435
24.600,970460,11.803414,4.031836,5.774815,-0.420611,1.172568,-0.426740
24.620,970480,9.562442,2.858677,4.352659,-0.326550,0.960198,-0.334677
24.640,970500,6.761226,2.020706,3.122039,-0.154149,0.571962,-0.217167
24.660,970520,4.630386,1.742979,3.031059,-0.192919,0.406489,-0.145222
24.680,970540,2.633622,0.732626,1.881842,-0.131899,0.275256,-0.098458
24.700,970560,0.981623,-0.110133,1.206678,-0.094994,0.194651,0.074476
24.720,970580,-0.272939,0.129287,1.211466,-0.004930,-0.015455,0.218766
24.740,970600,0.972046,1.316811,2.011129,0.054225,-0.312960,0.211704
24.760,970620,1.249773,1.465251,1.781286,0.019985,-0.058755,0.220764
24.780,970640,0.277727,1.546654,1.819593,0.071412,-0.092196,0.269260
24.800,970660,4.352659,5.008670,4.630386,0.101922,-0.618459,0.238750
24.820,970680,17.736246,7.383718,6.349423,0.481897,-1.148720,-0.014123
24.840,970700,11.683704,5.343858,4.951209,0.470040,0.281518,0.584885
24.860,970720,10.103531,5.042189,7.934384,0.494554,-0.398894,0.413816
24.880,970740,19.895817,8.585608,9.241618,0.314426,-0.777404,0.170270
24.900,970760,22.098482,10.357317,9.054871,0.139626,0.056757,0.053426
24.920,970780,14.269443,9.562442,9.308656,-0.083136,0.457383,-0.282850
24.940,970800,12.033257,8.623915,7.953538,-0.029977,0.539853,-0.912234
24.960,970820,11.506534,6.406884,5.640739,0.040236,0.587017,-1.038138
24.980,970840,8.973468,4.022259,4.505888,-0.024381,0.680545,-0.759551
25.000,970860,5.664681,2.370260,3.945644,-0.209839,0.719049,-0.440462
25.020,970880,3.251326,1.326388,3.064578,-0.228492,0.413017,-0.204910
25.040,970900,2.758120,0.660800,2.398990,-0.408620,0.299904,-0.013456
25.060,970920,2.044648,-0.095768,1.139640,-0.392632,0.015055,0.167472
25.080,970940,2.130840,0.383072,1.426944,-0.398228,-0.315225,0.309629
25.100,970960,3.074155,0.823605,1.963245,-0.241415,-0.587017,0.280585
25.120,970980,2.547431,0.229843,2.130840,-0.124571,-0.596077,0.356927
25.140,971000,2.671929,0.938527,3.864242,-0.235420,-0.732372,0.470839
25.160,971020,10.122684,3.916914,6.967127,-0.359591,-1.409720,0.256603
25.180,971040,13.560759,4.659117,6.708553,-0.533458,-0.889052,0.073677
25.200,971060,9.423578,5.171476,6.526594,-0.561436,-0.520801,0.084335
25.220,971080,15.792154,7.685388,7.455544,-0.305233,-1.014423,-0.210372
25.240,971100,21.413740,9.059659,9.634268,-0.383040,-1.200547,-0.414616
25.260,971120,15.902287,6.842628,10.649409,-0.269527,0.029178,-0.157613
25.280,971140,13.455414,6.110003,9.816227,-0.254072,0.715452,-0.151884
25.300,971160,13.292608,5.181053,6.766014,-0.317623,0.994172,-0.231289
25.320,971180,11.042058,4.400543,4.884171,-0.260867,0.848550,-0.194251
25.340,971200,8.212111,3.845088,4.256891,-0.217966,0.796856,-0.162542
25.360,971220,5.406107,2.633622,3.260903,0.009726,0.525730,-0.147354
25.380,971240,3.040636,1.632846,2.398990,-0.040236,0.512674,-0.059155
25.400,971260,0.995988,0.651223,1.522712,0.005995,0.313227,0.058222
25.420,971280,-0.205901,0.402226,1.546654,-0.009593,0.247544,0.133498
25.440,971300,0.579397,0.603339,1.877054,-0.007061,0.031576,0.122173
25.460,971320,1.685518,0.770933,1.489193,0.101522,0.028511,0.229158
25.480,971340,1.024718,1.024718,1.805228,0.088865,0.021717,0.330147
25.500,971360,2.691083,2.006341,2.882619,0.083403,-0.330280,0.344136
25.520,971380,9.136273,4.165911,5.348647,0.056623,-0.900643,0.261000
25.540,971400,15.686810,5.185841,5.430049,0.028112,-0.977251,0.250608
25.560,971420,12.176909,5.324705,5.750873,-0.018786,-0.504813,0.702662
25.580,971440,15.787366,7.369353,7.546524,0.180528,-0.838024,0.626453
25.600,971460,21.988348,10.304645,8.322245,0.184126,-0.967126,0.337208
25.620,971480,18.320431,9.739613,8.906430,0.285648,-0.205709,0.114046
25.640,971500,14.130578,8.269572,8.274361,0.246345,0.329214,-0.299904
25.660,971520,13.115437,6.789956,5.760449,0.318689,0.527995,-0.619259
25.680,971540,11.195287,4.750096,4.046201,0.464311,0.670286,-0.579689
25.700,971560,7.584831,2.801216,3.217807,0.493755,0.765147,-0.368784
25.720,971580,4.165911,1.604115,3.026271,0.279386,0.720515,-0.189855
25.740,971600,1.881842,0.909797,2.193089,-0.014389,0.525864,-0.107118
25.760,971620,1.264138,-0.067038,1.335965,-0.193452,0.255404,-0.034507
25.780,971640,1.063026,-0.272939,0.569820,-0.254738,0.031709,0.126570
25.800,971660,2.336741,0.713472,1.192312,-0.198248,-0.356793,0.153749
25.820,971680,3.193865,1.254562,1.829170,-0.208507,-0.383040,0.092596
25.840,971700,1.958457,1.321599,3.313575,-0.223296,-0.322953,0.026513
25.860,971720,8.298303,3.059790,5.683835,-0.272058,-0.782334,-0.219565
25.880,971740,14.709975,3.447650,5.310339,-0.345069,-0.703994,-0.192652
25.900,971760,11.022904,4.802769,5.568913,-0.496020,-0.386637,0.233554
25.920,971780,15.275007,7.551312,6.991069,-0.257536,-0.735037,0.046897
25.940,971800,20.987572,9.026140,9.854534,-0.142557,-0.632582,-0.200113
25.960,971820,17.190369,7.110779,10.879252,-0.303101,0.173600,-0.215302
25.980,971840,13.192051,5.918467,10.122684,-0.551577,0.807115,-0.273124
26.000,971860,12.885593,5.856217,7.728483,-0.559038,1.009093,-0.451920
26.020,971880,12.004527,5.458780,5.928043,-0.403824,0.953270,-0.554375
26.040,971900,8.882488,4.103662,4.874595,-0.427806,0.991907,-0.517070
26.060,971920,6.229713,2.911349,3.878607,-0.074876,0.522266,-0.364787
26.080,971940,4.232949,2.638410,2.920926,-0.259668,0.687606,-0.173467
26.100,971960,2.494758,2.317587,2.231396,-0.090597,0.485761,-0.049962
26.120,971980,1.905785,1.642422,1.910573,0.077674,0.259268,0.050095
26.140,972000,0.933739,0.411803,1.608904,0.212237,0.097659,0.192919
26.160,972020,0.785298,0.234632,1.996764,0.150685,-0.025447,0.409686
26.180,972040,0.670376,0.656011,2.116474,0.074609,0.104986,0.599940
26.200,972060,0.493206,1.273715,1.991976,0.118443,0.052760,0.625387
26.220,972080,2.240973,2.968810,3.490746,0.207441,-0.245678,0.501349
26.240,972100,13.029245,5.516241,7.498640,0.258602,-0.847750,0.145755
26.260,972120,13.852851,3.840300,4.568137,0.163475,0.108983,0.393299
26.280,972140,9.509769,5.291186,7.115568,0.009992,-0.199714,0.607534
26.300,972160,16.730682,8.111555,8.528147,0.195317,-0.611931,0.060221
26.320,972180,22.548592,10.357317,8.700529,0.128568,-0.456717,-0.073810
26.340,972200,16.778566,9.299079,9.892841,0.116311,0.130567,0.023449
26.360,972220,13.263878,8.992621,9.145850,0.120974,0.405023,-0.388236
26.380,972240,12.847286,7.603985,7.038953,0.129900,0.598608,-0.660694
26.400,972260,11.372458,5.190629,5.027823,0.207175,0.677614,-0.538787
26.420,972280,8.010999,3.184288,3.950433,0.160144,0.511075,-0.329081
26.440,972300,5.066131,1.972822,3.361459,-0.047697,0.380242,-0.138560
26.460,972320,1.867477,0.770933,2.331953,-0.096593,0.149752,-0.036106
26.480,972340,0.124498,0.177171,1.699883,-0.302035,0.135896,0.008394
26.500,972360,0.837971,0.349553,1.532289,-0.289245,-0.205576,-0.034240
26.520,972380,3.160346,0.359130,2.145205,-0.307098,-0.456317,-0.074210
26.540,972400,3.490746,0.047884,2.126051,-0.325884,-0.581155,-0.050761
26.560,972420,1.733402,-0.282516,2.877831,-0.323485,-0.705459,0.080205
26.580,972440,4.477157,1.580173,4.596867,-0.583953,-1.290345,-0.063685
26.600,972460,12.540829,4.046201,7.043741,-1.189622,-2.338874,-0.526130
26.620,972480,15.883134,5.544971,4.625597,-0.838691,-1.709756,-0.296839
26.640,972500,11.966220,7.163452,6.751649,-0.745162,-1.636746,0.091397
26.660,972520,15.610195,9.265560,8.508993,-0.461247,-1.579589,-0.067282
26.680,972540,21.313183,10.084377,8.413225,-0.371449,-1.219998,-0.111248
26.700,972560,16.768990,8.188169,8.652645,-0.072611,-0.205309,0.130700
26.720,972580,13.939042,6.579266,7.134721,-0.024781,0.373580,0.004530
26.740,972600,11.468226,5.185841,5.401319,-0.014789,0.812711,-0.061286
26.760,972620,9.591172,4.309563,3.945644,-0.046764,0.894248,-0.118576
26.780,972640,6.593631,3.007117,2.585738,0.037571,0.824968,-0.094727
26.800,972660,3.998317,1.757344,1.920150,-0.156014,1.028012,0.062885
26.820,972680,1.613692,0.574608,1.221043,-0.152949,0.854545,0.150418
26.840,972700,1.355118,0.167594,0.737414,-0.212637,0.565567,0.208907
26.860,972720,1.824382,0.339977,0.536301,-0.093795,0.322686,0.277654
26.880,972740,2.288857,0.814029,1.249773,-0.075675,0.263265,0.360657
26.900,972760,1.426944,0.986411,1.613692,-0.008660,0.261000,0.442727
26.920,972780,0.641646,1.235408,1.814805,0.073544,0.286847,0.469374
26.940,972800,3.208230,2.461239,2.858677,0.090997,0.000933,0.352530
26.960,972820,13.618219,5.281609,5.257667,0.099390,-0.649769,0.056757
26.980,972840,17.209522,5.391742,4.635174,0.299104,-0.380775,0.275123
27.000,972860,11.650186,4.587290,6.469133,0.416214,-0.111248,0.729974
27.020,972880,16.970102,7.211336,8.537724,0.240083,-0.517870,0.502681
27.040,972900,23.956383,10.232818,8.365341,0.152683,-0.278986,0.179462
27.060,972920,18.004396,8.920795,8.116343,0.435666,0.277920,0.061953
27.080,972940,14.245501,8.030152,7.498640,0.553842,0.475369,-0.317490
27.100,972960,12.143391,6.416461,5.674258,0.585018,0.739833,-0.497352
27.120,972980,9.380483,3.864242,4.113238,0.527196,0.996570,-0.437531
27.140,973000,6.540959,1.910573,3.236961,0.367319,0.525198,-0.321487
27.160,973020,3.739743,1.086968,2.432509,-0.022250,0.543717,-0.099390
27.180,973040,0.694318,-0.138864,1.513135,-0.053692,0.407821,0.024115
27.200,973060,0.220267,-0.076614,1.292869,-0.219832,0.219165,0.085934
27.220,973080,1.695095,0.435745,1.316811,-0.203844,-0.149752,0.040236
27.240,973100,3.289633,0.995988,1.608904,-0.181061,-0.307231,-0.053825
27.260,973120,2.317587,0.699107,2.025495,-0.197182,-0.166672,-0.062885
27.280,973140,-0.067038,0.225055,2.442086,-0.232755,-0.134697,-0.054092
27.300,973160,5.046977,2.049437,4.027047,-0.273657,-0.747827,-0.235686
27.320,973180,16.333244,4.199430,5.449203,-0.200513,-1.117011,-0.405156
27.340,973200,14.877569,5.137957,6.253655,-0.368384,-0.322420,0.109916
27.360,973220,10.184934,6.162675,6.938396,-0.323619,-0.380508,0.266995
27.380,973240,18.286913,8.944737,9.179369,-0.116044,-0.763015,-0.201312
27.400,973260,23.094469,9.414001,10.544065,-0.179063,-0.155081,-0.520534
27.420,973280,14.274231,6.665458,10.055647,-0.439130,0.553576,-0.446458
27.440,973300,13.733141,6.272809,7.680599,-0.429671,0.807381,-0.489092
27.460,973320,11.358093,5.023035,5.037400,-0.349199,0.952737,-0.405289
27.480,973340,7.287950,3.744531,4.089296,-0.277254,0.917297,-0.373447
27.500,973360,5.971139,2.820370,3.078943,-0.199314,0.812444,-0.346401
27.520,973380,5.980716,1.680730,2.178724,-0.112980,0.540652,-0.222230
27.540,973400,4.252102,0.632069,1.043872,-0.204776,0.514273,-0.037971
27.560,973420,1.881842,0.339977,1.206678,-0.093662,0.162942,0.132032
27.580,973440,0.565032,0.627281,1.915361,-0.003064,0.029977,0.208640
27.600,973460,1.455675,0.876278,1.814805,-0.051028,0.033974,0.244879
27.620,973480,1.594538,0.861913,1.264138,-0.034507,0.086467,0.355594
27.640,973500,0.665588,1.168370,1.254562,0.002798,0.004397,0.431269
27.660,973520,3.715801,3.318364,3.227384,0.043700,-0.549845,0.406622
27.680,973540,12.277467,5.568913,6.062119,0.148553,-0.986577,0.238484
27.700,973560,14.858416,5.870583,5.257667,0.182127,-0.281784,0.352663
27.720,973580,10.271125,5.401319,6.617573,0.048363,-0.200913,0.439263
27.740,973600,17.697939,8.250419,8.355764,0.082737,-0.581288,0.212770
27.760,973620,23.290794,10.994174,9.284714,0.023848,-0.162276,-0.035306
27.780,973640,17.401058,10.098742,9.136273,-0.033041,0.417813,-0.219698
27.800,973660,13.814544,9.279925,8.628703,0.048230,0.666956,-0.659361
27.820,973680,12.354081,7.412448,7.062895,0.122440,0.878127,-0.911302
27.840,973700,10.256760,4.898537,5.458780,0.108583,1.018020,-0.859342
27.860,973720,6.646304,2.743755,4.338294,0.044100,0.919296,-0.657096
27.880,973740,3.734955,1.489193,3.471592,-0.125504,0.883057,-0.455118
27.900,973760,1.546654,0.483629,2.336741,-0.287913,0.752357,-0.199580
27.920,973780,0.756568,0.325611,1.632846,-0.363988,0.362123,0.014789
27.940,973800,1.561020,0.660800,1.412579,-0.301236,-0.033041,0.059688
27.960,973820,3.093309,1.680730,2.001553,-0.345602,-0.351198,-0.012790
27.980,973840,3.337517,1.546654,1.814805,-0.171202,-0.421410,-0.011591
28.000,973860,1.728614,1.086968,2.427721,-0.066349,-0.531326,0.144289
28.020,973880,4.654328,2.920926,4.951209,-0.145888,-1.148587,0.111648
28.040,973900,13.742718,5.085284,6.952762,-0.232222,-2.023516,-0.188922
28.060,973920,12.334928,5.018247,6.665458,-0.601806,-1.430371,0.131899
28.080,973940,11.401189,6.057330,6.823475,-0.306565,-1.125671,0.386637
28.100,973960,19.129671,8.408437,7.924808,-0.248609,-1.602905,0.198248
28.120,973980,20.604500,9.078813,9.078813,-0.068081,-0.839090,0.168404
28.140,974000,14.365211,7.292738,9.763555,-0.203977,0.094594,0.044233
28.160,974020,12.770672,6.047753,8.312668,-0.235153,0.669354,-0.264064
28.180,974040,11.496957,4.606444,5.559336,-0.315758,0.961130,-0.362922
28.200,974060,9.236830,3.773262,3.940856,-0.286181,0.874530,-0.312427
28.220,974080,7.206547,3.270479,3.122039,-0.233155,0.780469,-0.234354
28.240,974100,4.587290,2.193089,2.202666,-0.091263,0.712521,-0.116844
28.260,974120,1.991976,1.130063,1.790863,-0.105386,0.595810,-0.049296
28.280,974140,0.852336,0.100556,1.316811,-0.004397,0.303900,0.045165
28.300,974160,0.536301,-0.014365,1.537078,-0.025714,0.177464,0.202112
28.320,974180,0.842759,0.579397,1.805228,-0.049562,0.070746,0.288979
28.340,974200,1.359907,1.297657,2.044648,-0.002798,0.070213,0.350132
28.360,974220,1.393425,1.762132,2.360683,0.031975,0.005995,0.400626
28.380,974240,4.146757,2.997540,3.682282,0.035173,-0.342671,0.359191
28.400,974260,11.520899,4.936844,5.286397,0.117643,-0.758885,0.250075
28.420,974280,14.159308,5.827487,5.367800,0.241282,-0.378243,0.475902
28.440,974300,11.554418,5.827487,7.220912,-0.009060,-0.252473,0.592879
28.460,974320,17.420212,7.666234,8.111555,0.054092,-0.576625,0.367585
28.480,974340,21.993137,9.595961,8.250419,0.074210,-0.249409,0.254338
28.500,974360,17.554287,9.030929,8.207323,0.173467,0.283649,0.101256
28.520,974380,15.418659,8.681376,7.364564,0.322020,0.447257,-0.296573
28.540,974400,13.311762,7.216124,6.186617,0.483496,0.704527,-0.491757
28.560,974420,10.687716,5.042189,5.329493,0.530260,0.924092,-0.452320
28.580,974440,7.192182,2.801216,4.266468,0.271525,0.805916,-0.341472
28.600,974460,4.381389,1.752556,3.284845,-0.006129,0.601939,-0.220764
28.620,974480,1.685518,0.617704,2.049437,-0.138294,0.437798,-0.104720
28.640,974500,0.790087,0.454898,1.417367,-0.311361,0.359991,-0.024248
28.660,974520,1.010353,0.454898,1.000776,-0.169870,-0.044100,0.031043
28.680,974540,1.929727,1.144428,1.379060,-0.191453,-0.211172,0.039703
28.700,974560,2.576161,1.187524,1.661576,-0.097525,-0.331346,0.013456
28.720,974580,0.981623,0.512359,2.398990,-0.106851,-0.338807,0.044632
28.740,974600,2.810793,1.527501,4.122815,-0.242481,-0.656963,0.023715
28.760,974620,12.880805,4.558560,6.531382,-0.347600,-1.394398,-0.212371
28.780,974640,17.228676,5.774815,5.937620,-0.429005,-0.747827,-0.024115
28.800,974660,10.390836,5.865794,6.947973,-0.441928,-0.413417,0.293242
28.820,974680,17.860744,8.513782,8.422802,-0.173734,-0.970190,0.145622
28.840,974700,23.616405,9.686940,9.868899,-0.040502,-0.488026,0.034240
28.860,974720,15.859192,7.498640,10.453085,-0.169337,0.223962,0.001199
28.880,974740,12.871228,6.162675,9.121908,-0.228092,0.665357,-0.260334
28.900,974760,11.951855,4.975151,5.798757,-0.185991,0.825900,-0.418479
28.920,974780,10.251971,3.878607,4.175488,-0.100856,0.692403,-0.439530
28.940,974800,7.991845,2.537854,3.222595,0.014123,0.463245,-0.340672
28.960,974820,6.057330,1.709460,2.442086,-0.096060,0.332412,-0.125770
28.980,974840,3.112462,0.526724,1.374272,-0.139893,0.249009,0.020651
29.000,974860,0.474052,-0.023942,0.785298,-0.082737,0.043034,0.127769
29.020,974880,-1.192312,0.119710,1.307234,-0.066616,0.017054,0.184525
29.040,974900,-0.153229,0.751779,1.977611,-0.045299,-0.018386,0.202645
29.060,974920,1.312023,1.307234,1.642422,0.021583,0.138294,0.257003
29.080,974940,0.732626,1.666364,1.656788,0.017320,0.166273,0.269394
29.100,974960,2.585738,2.930503,3.184288,0.058489,-0.263798,0.236619
29.120,974980,9.672575,5.607220,5.363012,0.079806,-0.858942,0.123639
29.140,975000,16.448166,6.421249,5.003881,0.168005,-0.777538,0.095793
29.160,975020,11.300632,5.612009,4.936844,0.142691,-0.374913,0.632449
29.180,975040,15.610195,7.833828,7.268796,0.358392,-0.887720,0.593279
29.200,975060,22.026655,10.204087,8.279149,0.278054,-0.631916,0.254072
29.220,975080,18.344374,10.017340,8.829816,0.205309,0.066616,0.083003
29.240,975100,14.307750,9.476251,8.015787,0.107518,0.481098,-0.451121
29.260,975120,13.129802,7.398083,6.148310,0.098458,0.581954,-0.836959
29.280,975140,11.875240,4.750096,4.625597,0.096726,0.614862,-0.697998
29.300,975160,8.130709,2.767697,3.878607,-0.081271,0.686407,-0.331613
29.320,975180,4.209007,1.527501,3.213019,-0.092862,0.436599,-0.088865
29.340,975200,2.293645,0.833182,2.221819,-0.378243,0.329747,0.013190
29.360,975220,1.723825,0.153229,1.532289,-0.477634,0.075675,0.077674
29.380,975240,1.345541,-0.196325,0.938527,-0.467375,-0.116044,0.200513
29.400,975260,1.800440,0.871489,1.561020,-0.476701,-0.455118,0.250342
29.420,975280,1.604115,0.799663,2.159570,-0.350531,-0.257536,0.191986
29.440,975300,0.488417,0.258574,3.145981,-0.225827,-0.131499,0.185724
29.460,975320,5.822699,1.795651,5.602432,-0.544250,-0.593012,0.032109
29.480,975340,15.480908,3.476381,4.065354,-0.720115,-0.899977,0.083936
29.500,975360,12.263102,4.290410,6.105214,-0.840556,-0.274723,0.546381
29.520,975380,13.364434,6.579266,7.651869,-0.512008,-0.309629,0.361456
29.540,975400,21.145590,9.543288,9.878476,-0.109783,-0.425008,0.017320
29.560,975420,20.441694,9.040505,10.544065,-0.396896,0.360391,0.017986
29.580,975440,14.556746,6.502652,9.710882,-0.524665,0.793259,-0.012524
29.600,975460,14.283808,5.674258,7.134721,-0.405956,0.816175,-0.179596
29.620,975480,12.962208,4.659117,5.152322,-0.209573,0.762482,-0.185858
29.640,975500,9.270349,3.241749,4.122815,0.002665,0.592346,-0.088332
29.660,975520,5.793968,2.092532,3.208230,0.004663,0.485894,-0.021051
29.680,975540,3.213019,1.034295,2.207454,0.027312,0.395031,0.013057
29.700,975560,1.043872,0.090980,1.575385,0.022383,0.318689,0.056357
29.720,975580,0.215478,-0.316035,1.695095,0.039703,0.146421,0.057822
29.740,975600,1.125275,-0.153229,1.944092,0.000533,0.010126,0.043833
29.760,975620,2.245761,0.373495,1.680730,0.042368,0.009060,0.077141
29.780,975640,0.900220,0.545878,1.996764,0.008793,0.172268,0.121507
29.800,975660,0.071826,0.924162,2.475605,0.033441,0.121374,0.058622
29.820,975680,2.983175,2.801216,4.936844,0.042501,-0.278187,-0.205043
29.840,975700,12.928689,4.821922,6.952762,0.054092,-0.748893,-0.567698
29.860,975720,16.515203,4.989516,5.018247,-0.049962,-0.418879,-0.289778
29.880,975740,13.508086,5.612009,6.335058,0.143890,-0.133631,0.176265
29.900,975760,20.283676,9.988609,8.676587,0.147221,-1.027346,-0.152283
29.920,975780,22.802378,11.626244,8.422802,0.235553,-0.347334,-0.354528
29.940,975800,16.227900,9.619903,7.814674,0.445126,0.407288,-0.309496
29.960,975820,13.599066,8.207323,6.473921,0.735836,0.710922,-0.379309
29.980,975840,11.185710,6.066907,5.492299,0.854412,1.059188,-0.259135
30.000,975860,8.020576,3.859453,4.774038,0.558772,1.048663,-0.132165
30.020,975880,5.142745,2.245761,3.639187,0.372381,0.641508,-0.035306
30.040,975900,2.561796,1.240196,2.638410,-0.141492,0.733571,0.025580
30.060,975920,0.316035,0.383072,1.446098,-0.122706,0.357193,0.004130
30.080,975940,0.095768,0.287304,1.005565,-0.196250,0.167738,0.029577
30.100,975960,1.412579,0.895431,1.240196,-0.125904,-0.172268,0.028511
30.120,975980,3.184288,1.580173,1.623269,-0.075009,-0.297106,0.007594
30.140,976000,1.762132,0.890643,1.857901,-0.039836,-0.220364,0.058489
30.160,976020,3.083732,1.987187,4.046201,-0.106052,-0.648570,0.040636
30.180,976040,14.494497,4.687847,6.679823,-0.083270,-1.430104,-0.258335
30.200,976060,14.820108,4.213795,5.406107,-0.191986,-0.518669,0.160544
30.220,976080,10.630256,5.439626,7.139510,-0.338674,-0.607934,0.476435
30.240,976100,16.290148,8.044518,8.259995,-0.407155,-0.782600,0.129234
30.260,976120,21.011515,9.888053,10.319010,-0.531992,-0.464044,-0.173467
30.280,976140,13.393165,7.383718,10.615891,-0.725577,0.452187,-0.240083
30.300,976160,11.372458,6.818686,9.452309,-0.869734,1.096626,-0.475769
30.320,976180,10.635044,5.837064,6.794744,-0.755288,1.468874,-0.564501
30.340,976200,9.059659,5.013458,5.272032,-0.563568,1.448490,-0.548247
30.360,976220,8.173804,4.146757,4.467580,-0.263265,1.004963,-0.512940
30.380,976240,6.636727,2.557007,3.778050,-0.152150,0.697066,-0.337608
30.400,976260,3.433285,1.019930,2.829947,-0.068481,0.346801,-0.073011
30.420,976280,1.580173,0.579397,2.786851,-0.160277,0.277920,0.171735
30.440,976300,0.957681,0.244209,2.451663,-0.098058,0.097659,0.307231
30.460,976320,1.072602,0.253785,2.126051,-0.118576,0.032375,0.365054
30.480,976340,0.986411,0.536301,1.924938,-0.106851,-0.059421,0.413150
30.500,976360,0.847547,1.082179,1.752556,-0.014522,-0.183593,0.459781
30.520,976380,1.929727,2.983175,2.863465,0.116311,-0.389568,0.440063
30.540,976400,9.888053,6.373365,7.120356,0.225028,-0.905173,0.151750
30.560,976420,16.472107,5.123591,6.196194,0.321221,-0.548646,0.014922
30.580,976440,9.974244,4.218584,6.057330,0.079539,-0.187723,0.529994
30.600,976460,14.475344,6.856994,8.379706,0.232489,-0.780602,0.435666
30.620,976480,20.925323,10.103531,9.414001,0.229691,-0.530793,0.124038
30.640,976500,16.984467,9.236830,9.931149,0.242348,0.067149,-0.050894
30.660,976520,11.750742,8.389283,9.945514,0.108184,0.423675,-0.406355
30.680,976540,10.654198,7.206547,7.862558,0.052626,0.788862,-0.728242
30.700,976560,10.103531,5.358223,5.674258,0.091263,1.053459,-0.678280
30.720,976580,7.843405,3.102885,4.515464,0.174933,0.934484,-0.499084
30.740,976600,5.420473,2.178724,4.027047,0.019452,0.753023,-0.336675
30.760,976620,2.499547,0.809240,2.762909,-0.221963,0.700663,-0.234087
30.780,976640,1.446098,0.493206,2.130840,-0.319622,0.332678,-0.097259
30.800,976660,2.547431,0.665588,1.508347,-0.418879,-0.013590,0.007594
30.820,976680,3.035848,1.158794,2.408567,-0.469640,-0.439930,0.053159
30.840,976700,2.868254,0.718261,2.628834,-0.364121,-0.581288,0.115511
30.860,976720,1.594538,0.081403,2.121263,-0.321887,-0.670153,0.237551
30.880,976740,3.787627,1.996764,4.979939,-0.735969,-1.465011,0.120574
30.900,976760,11.525687,4.084508,7.105990,-0.677614,-1.787564,-0.298038
30.920,976780,13.709199,4.687847,6.363788,-1.001632,-1.484329,-0.173334
30.940,976800,13.230358,6.885724,6.459556,-0.559171,-1.100757,0.200247
30.960,976820,17.970879,9.835381,8.662222,-0.423409,-1.411851,-0.110582
30.980,976840,19.819202,9.725247,9.758766,-0.209040,-1.032675,-0.049695
31.000,976860,14.307750,8.010999,11.061212,-0.378510,-0.132832,0.067415
31.020,976880,14.149732,6.904878,9.236830,-0.166539,0.664557,-0.069547
31.040,976900,11.750742,5.468357,6.732495,-0.246611,1.118343,-0.153616
31.060,976920,9.428367,4.434062,4.865018,-0.233554,1.057590,-0.233688
31.080,976940,7.015011,3.275268,3.136404,0.139227,0.861073,-0.234753
31.100,976960,4.946421,2.537854,2.863465,0.028378,0.970057,-0.123239
31.120,976980,2.638410,1.321599,2.494758,-0.061953,0.671752,-0.075276
31.140,977000,1.781286,0.646434,1.709460,-0.131899,0.384772,0.024781
31.160,977020,1.130063,0.407014,1.048660,0.002531,0.148020,0.143623
31.180,977040,0.641646,0.746991,1.541866,0.054758,0.006662,0.259268
31.200,977060,0.995988,1.091756,2.054225,0.104587,-0.020784,0.307364
31.220,977080,0.727837,0.392649,2.059013,0.241548,-0.013989,0.382640
31.240,977100,0.976834,0.368707,2.647987,0.176265,-0.147221,0.514805
31.260,977120,5.813122,2.968810,5.200206,-0.003597,-0.718250,0.437132
31.280,977140,16.112978,5.612009,4.999093,0.226493,-1.220132,0.188655
31.300,977160,12.832921,5.487510,5.516241,0.180395,-0.404357,0.619525
31.320,977180,12.186486,6.368577,8.389283,0.338274,-0.698531,0.486560
31.340,977200,20.475212,9.370906,10.658986,0.220631,-0.728242,0.132698
31.360,977220,22.395363,10.946290,9.801862,-0.036106,0.051161,0.008260
31.380,977240,14.963760,9.016563,9.696517,-0.001466,0.563835,-0.239550
31.400,977260,13.646950,7.829040,8.030152,0.086334,0.743297,-0.679213
31.420,977280,12.545617,5.774815,5.200206,0.203844,1.067982,-0.682544
31.440,977300,8.743625,3.576937,3.988740,0.406222,0.976985,-0.446591
31.460,977320,5.832275,2.643199,3.711013,0.034907,0.937282,-0.246078
31.480,977340,2.729390,1.072602,2.652776,-0.166939,0.731573,-0.177597
31.500,977360,0.938527,0.186748,1.383849,-0.278320,0.353063,-0.064217
31.520,977380,0.857124,0.426168,1.067814,-0.143623,-0.123372,-0.014389
31.540,977400,2.097321,0.900220,0.991199,-0.225960,-0.199447,-0.046897
31.560,977420,3.074155,1.302446,1.225831,-0.213836,-0.338541,-0.063285
31.580,977440,2.590526,0.545878,1.762132,-0.095793,-0.518936,0.004397
31.600,977460,3.035848,1.139640,3.466804,-0.168937,-0.845885,0.126836
31.620,977480,11.113884,4.390966,5.880159,-0.072744,-1.718417,-0.017320
31.640,977500,15.131354,5.808333,5.784391,-0.138694,-1.078240,0.076075
31.660,977520,10.046070,5.750873,6.991069,-0.230490,-0.583819,0.228625
31.680,977540,13.996503,7.125144,8.734048,-0.036372,-1.002032,-0.179462
31.700,977560,22.184673,9.840169,9.911995,-0.085934,-0.814576,-0.311628
31.720,977580,15.342045,7.326257,10.721235,-0.404890,0.421144,-0.081937
31.740,977600,11.607090,6.435614,9.658210,-0.541851,0.843354,-0.133631
31.760,977620,12.516887,5.693412,6.708553,-0.481897,0.919029,-0.212637
31.780,977640,10.630256,4.218584,4.639963,-0.381175,0.859874,-0.141358
31.800,977660,8.169016,3.605668,3.921702,-0.225560,0.610732,-0.039170
31.820,977680,5.420473,2.638410,3.002329,0.074077,0.186923,-0.021983
31.840,977700,3.155558,1.618480,2.576161,-0.071545,0.362389,-0.033574
31.860,977720,0.703895,0.397437,1.503559,0.010126,0.347201,0.005063
31.880,977740,0.617704,0.210690,1.364695,0.000533,0.152816,0.106985
31.900,977760,1.264138,0.354342,1.470040,0.107118,-0.037438,0.166139
31.920,977780,1.675941,0.354342,1.675941,0.116444,-0.034374,0.245012
31.940,977800,1.316811,0.694318,1.752556,-0.009726,0.074343,0.427672
31.960,977820,2.035071,2.059013,2.375048,0.022383,-0.200380,0.559438
31.980,977840,7.608773,5.655105,5.511452,0.176931,-0.824435,0.413417
32.000,977860,18.981232,7.196970,6.703765,0.430603,-0.916631,-0.005862
32.020,977880,12.679692,4.419696,5.990293,0.148286,0.099257,0.562902
32.040,977900,12.325351,5.554548,8.432379,0.103920,-0.534790,0.613530
32.060,977920,21.231781,10.117896,9.356541,0.218366,-0.824435,0.269527
32.080,977940,19.555840,8.992621,9.342175,0.072744,0.188522,0.127236
32.100,977960,13.460202,7.292738,8.801085,-0.086201,0.508011,-0.060221
32.120,977980,11.918336,6.579266,6.866570,-0.083936,0.596609,-0.399694
32.140,978000,10.749966,4.735731,4.927267,0.083003,0.590881,-0.415681
32.160,978020,8.614338,3.064578,4.074931,0.139893,0.577824,-0.232755
32.180,978040,5.688623,1.513135,3.399766,0.279253,0.260867,-0.034374
32.200,978060,3.845088,0.814029,2.461239,-0.150951,0.428871,0.114712
32.220,978080,2.173935,0.067038,1.316811,-0.098058,0.052093,0.118842
32.240,978100,1.019930,0.114922,0.948104,-0.107118,-0.147221,0.145888
32.260,978120,0.660800,0.545878,1.470040,-0.047031,-0.355061,0.109916
32.280,978140,1.805228,0.526724,1.747767,-0.028511,-0.414749,0.053559
32.300,978160,2.547431,0.129287,1.891419,-0.026247,-0.484029,0.116178
32.320,978180,5.564125,1.805228,4.108450,-0.096859,-0.970190,0.142957
32.340,978200,14.437037,4.113238,6.536170,-0.003597,-1.515772,0.078873
32.360,978220,13.311762,4.836287,6.536170,-0.194651,-0.362256,0.487093
32.380,978240,11.956643,5.693412,6.497863,-0.162942,-0.414482,0.396629
32.400,978260,22.740128,8.825027,7.599196,0.138161,-1.217201,-0.040902
32.420,978280,24.349031,8.628703,9.370906,0.237285,-0.506945,0.140292
32.440,978300,13.541605,5.645528,10.160992,-0.087799,0.374913,0.163741
32.460,978320,11.032481,5.013458,8.044518,-0.257003,0.922093,-0.234354
32.480,978340,9.902418,3.873818,4.458004,-0.305499,1.204943,-0.455651
32.500,978360,8.264784,2.681506,2.949656,-0.220231,1.001632,-0.491757
32.520,978380,6.742072,2.044648,2.327164,-0.187057,0.588616,-0.427672
32.540,978400,4.750096,1.618480,2.322376,-0.346268,0.521867,-0.275389
32.560,978420,2.552219,0.579397,1.326388,-0.331479,0.415149,-0.138161
32.580,978440,0.957681,0.067038,0.948104,-0.365320,0.462046,0.047430
32.600,978460,0.158017,0.229843,1.192312,-0.221564,0.170270,0.118176
32.620,978480,1.024718,1.120486,1.810017,-0.197049,0.090198,0.114979
32.640,978500,0.962469,1.249773,1.838747,-0.155881,0.163608,0.131233
32.660,978520,1.364695,1.537078,2.082955,-0.081271,-0.024115,0.118975
32.680,978540,7.795521,4.534618,5.453991,-0.071945,-0.753289,-0.140959
32.700,978560,18.741812,5.937620,5.779603,0.187723,-0.876129,-0.189322
32.720,978580,10.984597,4.644751,6.009446,-0.044499,0.103254,0.427806
32.740,978600,13.603854,5.334281,7.422025,0.009726,-0.494821,0.320821
32.760,978620,22.132000,9.150639,8.360553,0.013057,-0.810845,0.172801
32.780,978640,19.886240,9.054871,8.628703,-0.051827,-0.017986,0.094861
32.800,978660,13.651738,8.245630,8.269572,-0.079672,0.355594,-0.199314
32.820,978680,11.722012,7.398083,7.307104,-0.026247,0.666423,-0.634447
32.840,978700,10.026917,5.181053,5.564125,0.042900,0.871332,-0.723446
32.860,978720,7.977480,3.059790,4.074931,0.067282,0.953936,-0.568098
32.880,978740,6.009446,1.776498,3.213019,-0.008527,0.855611,-0.326816
32.900,978760,3.093309,0.660800,2.365471,-0.141492,0.776738,-0.127103
32.920,978780,1.283292,0.067038,1.877054,-0.229024,0.522799,-0.029711
32.940,978800,1.541866,-0.129287,1.551443,-0.289511,0.190654,0.033574
32.960,978820,3.323152,0.191536,1.929727,-0.270326,-0.159744,0.100456
32.980,978840,3.074155,-0.459687,2.379837,-0.217167,-0.090064,0.271525
33.000,978860,1.292869,-1.010353,2.288857,-0.210905,-0.026913,0.564767
33.020,978880,5.200206,1.374272,3.979163,-0.272058,-0.742631,0.608734
33.040,978900,15.241488,4.007894,5.961562,-0.074077,-1.495254,0.294175
33.060,978920,10.065224,4.596867,7.517793,-0.333877,-0.471372,0.324418
33.080,978940,8.676587,6.536170,8.595184,-0.423009,-0.434467,-0.059155
33.100,978960,18.052280,9.361329,9.155427,-0.111781,-0.861340,-0.652300
33.120,978980,22.424093,10.615891,9.595961,-0.019718,-0.142824,-0.694401
33.140,979000,14.451402,7.762002,10.156203,-0.010525,0.664557,-0.460580
33.160,979020,13.474567,6.823475,8.911219,0.041035,0.903441,-0.478567
33.180,979040,12.622231,5.176264,6.493075,0.002132,1.049462,-0.340139
33.200,979060,9.418790,3.596091,5.252879,-0.115378,1.060920,-0.168271
33.220,979080,6.718130,2.657564,4.036624,-0.030377,0.780469,-0.087266
33.240,979100,5.583278,2.164358,3.165135,-0.161343,0.735436,-0.036505
33.260,979120,4.050989,1.240196,1.944092,-0.126037,0.572228,-0.000933
33.280,979140,1.493982,0.258574,1.058237,-0.060620,0.413949,0.102588
33.300,979160,0.359130,0.248997,1.297657,0.027179,0.199447,0.144689
33.320,979180,1.029507,0.751779,2.102109,0.052227,-0.021051,0.122173
33.340,979200,1.987187,0.574608,1.920150,0.025980,0.002398,0.199447
33.360,979220,1.412579,0.474052,1.647211,0.053426,-0.099790,0.405156
33.380,979240,3.323152,2.533065,3.653552,-0.024248,-0.559571,0.531193
33.400,979260,11.688493,5.267244,6.521805,0.122306,-1.152583,0.296173
33.420,979280,15.356410,5.899313,4.448427,0.163208,-0.431536,0.443527
33.440,979300,11.070788,5.659893,6.785168,0.130567,-0.557306,0.700530
33.460,979320,18.124107,7.331046,9.859323,0.435400,-1.021217,0.700796
33.480,979340,22.529438,9.548077,10.065224,0.331613,-0.430737,0.887587
33.500,979360,16.017210,9.318233,10.084377,0.105119,0.199447,0.539587
33.520,979380,12.780249,8.030152,9.059659,0.087266,0.276055,-0.240482
33.540,979400,12.737153,5.880159,6.464345,0.161077,0.359191,-0.656963
33.560,979420,10.271125,3.524265,4.707001,0.137495,0.348666,-0.557040
33.580,979440,6.133945,1.584962,2.906561,0.339074,-0.086600,-0.308697
33.600,979460,3.749320,1.163582,2.887407,-0.218366,0.371182,-0.096992
33.620,979480,1.403002,0.014365,1.862689,-0.132965,0.104054,-0.039303
33.640,979500,1.307234,-0.234632,1.556231,-0.208240,-0.140825,0.050628
33.660,979520,1.225831,-0.138864,1.249773,-0.226093,-0.285781,0.134297
33.680,979540,1.771709,0.881066,1.905785,-0.284182,-0.386237,0.039170
33.700,979560,1.546654,0.756568,2.035071,-0.224228,-0.341605,-0.190387
33.720,979580,0.847547,0.205901,2.193089,-0.087533,-0.408887,-0.275922
33.740,979600,5.458780,2.102109,4.707001,-0.104453,-0.967792,-0.348533
33.760,979620,16.328455,4.836287,6.981492,-0.038637,-1.368551,-0.480032
33.780,979640,14.781801,5.090073,6.660669,-0.233821,-0.295107,0.028645
33.800,979660,13.819332,6.086061,6.871359,-0.306032,-0.533325,0.208640
33.820,979680,22.199038,8.906430,8.398860,-0.085534,-1.109550,0.069147
33.840,979700,21.643583,8.264784,9.428367,-0.019185,-0.464178,0.082470
33.860,979720,15.581465,6.426037,9.758766,-0.205176,0.138694,0.106319
33.880,979740,13.943830,5.817910,7.915231,-0.251008,0.468574,-0.125504
33.900,979760,11.214440,4.778827,5.372589,-0.274190,0.703194,-0.273790
33.920,979780,7.833828,3.466804,3.845088,-0.237418,0.786198,-0.348266
33.940,979800,5.310339,2.288857,2.322376,0.092862,0.367185,-0.353862
33.960,979820,4.616021,1.915361,2.126051,-0.178930,0.484029,-0.274323
33.980,979840,2.743755,0.727837,1.604115,-0.099524,0.274723,-0.190387
34.000,979860,0.588974,-0.110133,1.608904,-0.150551,0.251674,0.014789
34.020,979880,-0.799663,-0.071826,1.719037,-0.229691,0.252606,0.162409
34.040,979900,0.876278,0.675165,1.819593,-0.198115,0.046897,0.172135
34.060,979920,2.054225,0.732626,1.187524,-0.152150,0.158812,0.231556
34.080,979940,1.580173,1.312023,1.115698,-0.058888,0.004530,0.401559
34.100,979960,3.667917,3.332729,3.236961,0.047564,-0.460314,0.439263
34.120,979980,13.311762,5.190629,6.057330,0.076208,-1.111415,0.223828
34.140,980000,16.630125,5.018247,4.012682,0.093928,-0.440462,0.623789
34.160,980020,9.701305,5.209783,6.430826,-0.095660,-0.358925,0.830164
34.180,980040,16.701952,8.063671,8.623915,0.161343,-0.892783,0.455384
34.200,980060,23.142353,9.399636,9.720459,0.086734,-0.455251,0.232888
34.220,980080,17.755400,7.766790,8.590396,-0.108184,0.259135,0.088599
34.240,980100,14.968549,7.508216,7.249643,-0.076342,0.315358,-0.345469
34.260,980120,13.962984,5.923255,5.104438,0.053825,0.361590,-0.597675
34.280,980140,10.716447,3.749320,3.768473,0.107384,0.418479,-0.473637
34.300,980160,6.406884,1.924938,3.208230,0.056757,0.406089,-0.287779
