Time(s),Time(ms),AccelX,AccelY,AccelZ,GyroX,GyroY,GyroZ
0.000,550860,4.118027,9.801862,8.169016,-0.314825,0.080738,0.183459
0.020,550880,4.285621,9.931149,8.643068,-0.345202,0.084335,0.162942
0.040,550900,5.339070,10.266336,9.672575,-0.179196,-0.059421,0.116444
0.060,550920,5.664681,10.855310,10.304645,-0.135629,-0.268461,0.129101
0.080,550940,5.434838,11.678916,10.467450,-0.048629,-0.412217,0.143090
0.100,550960,2.624045,9.787497,10.419566,-0.137894,-0.254871,0.124838
0.120,550980,1.910573,8.025364,9.983821,-0.028911,-0.099390,-0.065816
0.140,551000,1.154005,5.827487,9.011775,-0.285781,0.239949,-0.117776
0.160,551020,1.503559,5.865794,9.260772,-0.473371,0.498551,-0.112047
0.180,551040,2.480393,6.718130,9.323022,-0.459914,0.582354,-0.053559
0.200,551060,2.561796,6.521805,8.418014,-0.331479,0.556640,0.045698
0.220,551080,2.518700,6.646304,8.614338,-0.268328,0.496686,0.035440
0.240,551100,1.953669,6.641516,8.346188,-0.285515,0.488159,-0.089665
0.260,551120,0.943315,5.793968,7.862558,-0.218899,0.438597,-0.241015
0.280,551140,0.679953,4.855441,7.407660,-0.103920,0.395430,-0.349998
0.300,551160,1.173159,4.376601,6.689400,-0.039703,0.361590,-0.353329
0.320,551180,1.762132,4.319140,6.004658,-0.013323,0.298838,-0.246211
0.340,551200,2.078167,4.328717,5.521029,0.037571,0.211971,-0.113513
0.360,551220,2.102109,4.209007,5.363012,0.077541,0.129101,-0.016654
0.380,551240,2.078167,4.175488,5.669470,0.102988,0.083536,0.025714
0.400,551260,1.848324,4.304775,5.750873,0.072211,0.010392,0.027579
0.420,551280,1.508347,4.237737,5.942409,0.096726,-0.049828,-0.006528
0.440,551300,1.110910,4.022259,6.363788,0.081005,-0.118309,-0.055158
0.460,551320,1.393425,4.596867,6.976704,0.065550,-0.185058,-0.161609
0.480,551340,2.279280,6.622362,7.800309,0.017320,-0.198381,-0.256070
0.500,551360,3.466804,8.662222,8.576031,0.003198,-0.162542,-0.243280
0.520,551380,3.591303,8.556877,8.585608,-0.010525,-0.100057,-0.098458
0.540,551400,3.002329,8.556877,9.208099,-0.059021,-0.160277,0.060753
0.560,551420,2.858677,9.088389,9.969456,-0.099257,-0.115245,0.158678
0.580,551440,2.987964,10.285490,11.142614,-0.167605,-0.031842,0.210239
0.600,551460,3.179500,11.013328,11.018116,-0.183326,0.079006,0.218233
0.620,551480,1.766921,10.232818,10.462662,-0.195450,0.047697,0.148553
0.640,551500,0.928950,9.203311,8.781932,-0.177864,0.020518,-0.013590
0.660,551520,-0.143652,7.920019,7.613562,-0.140159,0.006928,-0.247810
0.680,551540,0.009577,7.460332,7.915231,-0.061020,0.007594,-0.475502
0.700,551560,0.799663,7.307104,8.212111,-0.073544,0.108051,-0.547181
0.720,551580,1.436521,7.182605,8.183381,-0.144556,0.181061,-0.411418
0.740,551600,1.513135,7.551312,7.809886,-0.234487,0.260600,-0.283516
0.760,551620,1.000776,6.861782,7.340622,-0.259401,0.312694,-0.246078
0.780,551640,0.416591,5.525817,6.651093,-0.195450,0.256870,-0.299904
0.800,551660,0.646434,4.424485,6.363788,-0.137761,0.168138,-0.369450
0.820,551680,1.091756,3.983952,6.014235,-0.172135,0.072877,-0.334810
0.840,551700,1.091756,4.161122,5.583278,-0.221164,-0.008127,-0.213969
0.860,551720,0.981623,4.390966,5.348647,-0.215035,-0.037704,-0.108450
0.880,551740,1.139640,4.707001,5.243302,-0.167605,-0.032375,-0.045965
0.900,551760,1.312023,4.927267,5.243302,-0.122839,-0.045832,0.027845
0.920,551780,1.134852,4.797980,5.434838,-0.103521,-0.050228,0.120574
0.940,551800,1.091756,4.616021,5.784391,-0.093662,-0.059421,0.200779
0.960,551820,1.848324,5.353435,6.363788,-0.085801,-0.080072,0.248609
0.980,551840,3.179500,7.345411,7.287950,-0.121240,-0.075675,0.264198
1.000,551860,3.768473,9.208099,8.585608,-0.139626,-0.140825,0.276455
1.020,551880,3.303998,9.433155,9.270349,-0.057023,-0.296706,0.262998
1.040,551900,3.399766,9.926360,10.242394,0.043966,-0.400093,0.112580
1.060,551920,3.610456,10.831368,10.204087,0.098591,-0.473104,-0.040236
1.080,551940,3.088520,11.123461,10.390836,0.193585,-0.526796,-0.133764
1.100,551960,3.112462,11.156980,10.515334,0.293375,-0.533858,-0.217966
1.120,551980,1.618480,8.963891,9.955091,0.357593,-0.534257,-0.186524
1.140,552000,0.857124,6.813898,9.303867,0.318423,-0.458449,-0.180795
1.160,552020,0.636858,5.607220,9.131485,0.140692,-0.280052,-0.089531
1.180,552040,1.335965,6.502652,9.232041,-0.074876,-0.052760,-0.001332
1.200,552060,1.886631,7.216124,8.738836,-0.150551,0.104986,0.081138
1.220,552080,1.733402,6.847417,8.542512,-0.108583,0.148153,0.112314
1.240,552100,1.944092,6.952762,8.863335,-0.179196,0.204243,0.027712
1.260,552120,1.177947,6.521805,8.164227,-0.278986,0.241948,-0.086600
1.280,552140,0.349553,5.736507,7.364564,-0.210905,0.266596,-0.275389
1.300,552160,0.938527,5.300763,6.574478,-0.065683,0.269793,-0.457783
1.320,552180,1.666364,4.927267,5.793968,0.033441,0.198914,-0.463245
1.340,552200,1.867477,4.534618,5.487510,0.076208,0.085534,-0.356660
1.360,552220,1.608904,4.410120,5.382165,0.082204,0.007861,-0.242214
1.380,552240,1.383849,4.343082,5.329493,0.140426,-0.046897,-0.158412
1.400,552260,1.508347,4.673482,5.353435,0.168804,-0.050894,-0.139093
1.420,552280,1.240196,4.596867,5.267244,0.187057,-0.071012,-0.135496
1.440,552300,1.000776,4.175488,5.559336,0.236885,-0.124571,-0.168937
1.460,552320,1.024718,3.912126,5.851429,0.259002,-0.187057,-0.191320
1.480,552340,1.359907,4.941632,6.703765,0.168671,-0.155614,-0.183992
1.500,552360,2.446874,7.771579,7.785944,0.064484,-0.098191,-0.172135
1.520,552380,3.361459,9.706094,8.015787,0.074343,-0.072078,-0.116178
1.540,552400,3.122039,9.538500,8.499416,0.153349,-0.162942,-0.021583
1.560,552420,3.011906,9.337387,9.030929,0.167338,-0.236485,0.053559
1.580,552440,2.762909,9.835381,9.720459,0.056890,-0.192386,0.179462
1.600,552460,3.074155,11.587936,10.534488,-0.027579,-0.120841,0.292842
1.620,552480,3.059790,12.014104,9.959879,-0.095793,-0.020784,0.387037
1.640,552500,1.225831,10.797850,9.878476,-0.100723,-0.013323,0.334277
1.660,552520,0.809240,9.749189,7.982268,-0.116044,0.052893,0.127769
1.680,552540,-0.316035,8.303091,6.722919,-0.179995,0.079939,-0.047697
1.700,552560,-0.177171,8.154651,6.603208,-0.067149,0.131499,-0.194384
1.720,552580,0.330400,8.121132,6.335058,-0.008127,0.256470,-0.202911
1.740,552600,0.790087,8.279149,5.827487,0.051960,0.398228,-0.028645
1.760,552620,0.488417,8.791509,5.817910,0.077674,0.660028,0.284848
1.780,552640,-0.215478,8.221688,5.602432,0.088865,1.047864,0.558239
1.800,552660,-1.053449,7.441179,5.339070,0.167205,1.414116,0.796723
1.820,552680,-1.163582,6.813898,4.975151,0.342404,1.772775,1.078907
1.840,552700,-0.699107,6.129156,4.802769,0.545848,2.001400,1.352963
1.860,552720,-0.038307,5.492299,4.730943,0.695067,2.105720,1.502182
1.880,552740,0.565032,4.979939,5.066131,0.815508,2.099458,1.572262
1.900,552760,1.359907,4.654328,5.434838,0.825501,2.035107,1.605170
1.920,552780,1.924938,4.548983,5.224148,0.761550,1.834461,1.589848
1.940,552800,1.752556,4.467580,5.257667,0.672551,1.592646,1.512175
1.960,552820,2.049437,4.702212,5.415684,0.615129,1.352697,1.333245
1.980,552840,2.451663,5.023035,5.760449,0.565034,1.043733,1.119009
2.000,552860,3.031059,5.827487,6.971915,0.434600,0.765680,0.936616
2.020,552880,3.797204,7.762002,7.589619,0.194784,0.550378,0.799787
2.040,552900,4.481946,9.888053,7.465121,-0.022250,0.503614,0.745962
2.060,552920,4.994305,10.630256,7.354988,-0.060887,0.481231,0.732106
2.080,552940,5.257667,10.606314,8.001422,-0.077674,0.353063,0.708790
2.100,552960,5.166687,10.773908,8.935161,-0.121107,0.186124,0.623789
2.120,552980,5.583278,11.405977,9.634268,-0.159611,0.003331,0.547447
2.140,553000,2.700660,9.859323,8.705317,-0.341605,-0.117377,0.456184
2.160,553020,0.814029,8.039729,8.896853,-0.320688,-0.145222,0.169337
2.180,553040,0.497994,7.465121,7.900866,-0.501482,0.038371,0.035839
2.200,553060,0.306458,7.809886,8.259995,-0.603271,0.219432,-0.059954
2.220,553080,1.182736,8.547300,8.178593,-0.485361,0.336276,-0.143623
2.240,553100,1.249773,7.996634,7.790732,-0.362655,0.335876,-0.190787
2.260,553120,1.561020,8.106767,8.121132,-0.248609,0.297505,-0.263931
2.280,553140,1.407791,8.125920,7.862558,-0.190254,0.297772,-0.401959
2.300,553160,0.761356,7.058106,7.101202,-0.114312,0.274590,-0.564501
2.320,553180,0.679953,5.918467,6.435614,-0.044499,0.219032,-0.628585
2.340,553200,1.312023,5.506664,5.731719,-0.037438,0.160943,-0.556640
2.360,553220,1.958457,5.521029,5.118803,-0.020251,0.115778,-0.363188
2.380,553240,2.068590,5.439626,4.836287,0.003597,0.050761,-0.162409
2.400,553260,1.881842,5.190629,4.979939,0.077008,-0.066083,-0.034107
2.420,553280,2.145205,4.927267,5.449203,0.137228,-0.126570,0.010792
2.440,553300,2.245761,4.644751,5.339070,0.120841,-0.200380,0.080072
2.460,553320,1.929727,4.639963,5.492299,0.075675,-0.287113,0.111515
2.480,553340,1.733402,5.027823,5.731719,0.077141,-0.374380,0.081404
2.500,553360,1.848324,5.564125,6.062119,0.079273,-0.454185,0.015188
2.520,553380,2.293645,6.560112,6.574478,0.033175,-0.495887,0.018119
2.540,553400,3.117251,8.374918,7.326257,-0.049429,-0.492023,0.140426
2.560,553420,3.672705,9.777920,7.402872,-0.096326,-0.474303,0.315492
2.580,553440,3.031059,9.806650,7.603985,-0.081005,-0.482830,0.414616
2.600,553460,2.873042,9.830592,8.322245,-0.115511,-0.434334,0.406888
2.620,553480,3.055001,9.844957,9.102755,-0.238750,-0.343204,0.464844
2.640,553500,4.314352,11.233594,9.710882,-0.430337,-0.204910,0.582354
2.660,553520,2.873042,11.554418,8.394072,-0.590481,-0.129368,0.657896
2.680,553540,2.193089,11.123461,8.015787,-0.467908,-0.074210,0.361590
2.700,553560,3.011906,10.960655,6.019023,-0.369850,-0.129900,0.070613
2.720,553580,3.634398,10.572795,5.396531,-0.145888,-0.219832,-0.109916
2.740,553600,3.471592,9.136273,5.477933,0.008127,-0.259401,-0.069946
2.760,553620,2.557007,7.618350,6.181829,-0.028245,-0.221963,0.052493
2.780,553640,2.456451,7.369353,7.005434,-0.152283,-0.093928,0.097126
2.800,553660,2.111686,7.426814,6.665458,-0.326550,0.056357,0.067948
2.820,553680,1.106121,6.804321,5.937620,-0.354662,0.152683,-0.112580
2.840,553700,1.690306,5.530606,5.683835,-0.243014,0.270459,-0.315092
2.860,553720,2.547431,4.673482,5.075707,-0.267395,0.208907,-0.307231
2.880,553740,2.293645,4.242526,4.659117,-0.288712,0.038904,-0.201312
2.900,553760,1.795651,4.309563,4.434062,-0.243280,-0.041035,-0.122440
2.920,553780,1.733402,4.525041,4.481946,-0.166006,-0.038104,-0.056357
2.940,553800,2.082955,4.893748,4.683059,-0.095926,-0.015322,0.020118
2.960,553820,2.557007,5.286397,4.501099,0.008260,-0.042767,0.085135
2.980,553840,1.968034,4.927267,4.659117,0.085534,-0.059155,0.092862
3.000,553860,1.637634,4.812346,5.228937,0.121374,-0.057822,0.018253
3.020,553880,2.398990,5.219360,5.640739,0.133364,-0.055824,-0.073410
3.040,553900,4.362236,6.837840,6.952762,0.075009,-0.055291,-0.071945
3.060,553920,6.100426,9.528923,7.560889,-0.138427,-0.063418,0.041968
3.080,553940,5.564125,10.505757,7.493851,-0.232888,-0.078873,0.155214
3.100,553960,5.453991,10.611102,8.537724,-0.104720,-0.059688,0.129501
3.120,553980,5.899313,10.979809,8.786720,-0.153882,-0.130433,0.166806
3.140,554000,5.482722,11.214440,9.667787,-0.106718,-0.243413,0.157613
3.160,554020,5.382165,10.716447,9.198523,-0.066882,-0.287113,0.201312
3.180,554040,2.566584,8.389283,8.303091,-0.140692,-0.354129,0.201712
3.200,554060,1.254562,6.670246,7.900866,-0.198248,-0.250475,0.116577
3.220,554080,0.454898,6.320693,8.111555,-0.354262,-0.023848,0.074743
3.240,554100,1.163582,7.599196,8.446744,-0.407021,0.169204,-0.028112
3.260,554120,1.867477,8.461109,8.264784,-0.365453,0.326816,-0.110982
3.280,554140,2.073379,7.987057,8.590396,-0.214103,0.332678,-0.216501
3.300,554160,2.724602,8.173804,8.667010,-0.158412,0.339740,-0.355861
3.320,554180,2.197877,7.594408,7.766790,-0.141492,0.330413,-0.482697
3.340,554200,1.661576,6.354211,7.077260,-0.031043,0.267395,-0.592746
3.360,554220,1.891419,5.755661,6.464345,0.026113,0.176398,-0.626587
3.380,554240,2.308010,5.607220,5.635951,0.032375,0.081937,-0.557040
3.400,554260,2.566584,5.339070,5.214571,0.086334,0.042501,-0.394764
3.420,554280,2.461239,5.147533,5.037400,0.101655,-0.014256,-0.207041
3.440,554300,2.427721,5.157111,5.013458,0.140959,-0.055291,-0.106452
3.460,554320,2.293645,4.955997,5.171476,0.177997,-0.095527,-0.044632
3.480,554340,2.284068,4.778827,5.363012,0.243413,-0.220498,-0.063951
3.500,554360,2.624045,4.831499,5.779603,0.278986,-0.369184,-0.113113
3.520,554380,2.973598,5.568913,5.856217,0.251674,-0.485495,-0.111914
3.540,554400,3.155558,6.229713,6.497863,0.209306,-0.587949,-0.084868
3.560,554420,4.098873,6.751649,7.733272,0.231423,-0.749559,-0.046764
3.580,554440,5.415684,7.742848,7.829040,0.075542,-0.835626,0.118043
3.600,554460,5.070919,8.882488,7.436390,-0.174533,-0.862806,0.338541
3.620,554480,4.113238,8.959103,7.493851,-0.138161,-0.812444,0.385305
3.640,554500,3.821146,8.245630,7.876924,-0.092462,-0.762749,0.347734
3.660,554520,4.189853,9.184157,8.681376,-0.138427,-0.711055,0.334943
3.680,554540,5.693412,10.740389,8.379706,-0.215168,-0.583153,0.389168
3.700,554560,4.750096,10.706870,7.455544,-0.300037,-0.659628,0.393698
3.720,554580,3.778050,10.721235,6.181829,-0.224495,-0.667888,0.127103
3.740,554600,3.462016,10.041282,5.698200,-0.056224,-0.601672,-0.200380
3.760,554620,3.734955,9.447520,5.521029,-0.000400,-0.569830,-0.356127
3.780,554640,3.485958,8.968679,5.683835,-0.164274,-0.397962,-0.316424
3.800,554660,3.572149,8.547300,5.798757,-0.240083,-0.236485,-0.198115
3.820,554680,3.356671,8.255207,5.540183,-0.323485,-0.162675,-0.140825
3.840,554700,2.207454,7.225701,5.195418,-0.270459,-0.166139,-0.239283
3.860,554720,1.833959,5.861006,4.912902,-0.232489,-0.099923,-0.389835
3.880,554740,1.651999,4.486734,4.999093,-0.271126,-0.060087,-0.448057
3.900,554760,1.867477,3.897760,4.467580,-0.395830,-0.045965,-0.407554
3.920,554780,2.686294,4.529830,3.916914,-0.437132,-0.096992,-0.297239
3.940,554800,2.734178,5.166687,3.739743,-0.269527,-0.175865,-0.225161
3.960,554820,3.251326,5.937620,4.070143,-0.290711,-0.255404,-0.292842
3.980,554840,3.289633,5.784391,3.782839,-0.251807,-0.255404,-0.315092
4.000,554860,3.093309,5.420473,5.104438,-0.252740,-0.144289,-0.313227
4.020,554880,4.098873,5.846641,5.477933,-0.266063,-0.118975,-0.381308
4.040,554900,5.410896,6.287174,6.028600,-0.355861,-0.243413,-0.554242
4.060,554920,5.540183,6.928820,6.679823,-0.539853,-0.511075,-0.764081
4.080,554940,5.698200,7.714118,6.933608,-0.616594,-0.775273,-0.962729
4.100,554960,5.535394,8.044518,7.402872,-0.691204,-0.945942,-1.084236
4.120,554980,5.056554,8.212111,7.608773,-0.785398,-1.104753,-1.226127
4.140,555000,4.438850,7.762002,7.517793,-0.802851,-1.202412,-1.362023
4.160,555020,4.223372,7.110779,7.833828,-0.797389,-1.198149,-1.355228
4.180,555040,3.916914,6.507440,7.283162,-0.884789,-1.124472,-1.147521
4.200,555060,1.958457,5.228937,6.689400,-0.929554,-1.143124,-0.947940
4.220,555080,1.982399,6.200983,8.068460,-0.853613,-1.047997,-0.925291
4.240,555100,2.758120,7.431602,9.323022,-0.873197,-0.927023,-0.836159
4.260,555120,2.446874,8.197746,10.390836,-0.917697,-0.899311,-0.740899
4.280,555140,2.355895,9.787497,11.755530,-0.833495,-0.739167,-0.861340
4.300,555160,4.194642,12.990938,13.096283,-0.785531,-0.522666,-1.051727
4.320,555180,5.295974,13.924677,12.627020,-0.679746,-0.439130,-1.064651
4.340,555200,5.760449,12.507310,11.597513,-0.413150,-0.501749,-0.868668
4.360,555220,5.008670,10.093954,10.443508,-0.265930,-0.493489,-0.598874
4.380,555240,3.543418,9.169792,9.701305,-0.401159,-0.468441,-0.390368
4.400,555260,1.958457,8.547300,9.461885,-0.461913,-0.342671,-0.338940
4.420,555280,1.072602,6.852205,8.202535,-0.369850,-0.273524,-0.370250
4.440,555300,0.857124,5.286397,6.354211,-0.207308,-0.310296,-0.359858
4.460,555320,0.344765,3.964798,4.596867,-0.051294,-0.380775,-0.214236
4.480,555340,-1.393425,2.059013,3.797204,0.028645,-0.446191,-0.055424
4.500,555360,-3.050213,1.005565,3.687071,0.083003,-0.398761,-0.075542
4.520,555380,-1.699883,1.517924,3.035848,0.084069,-0.335210,-0.153216
4.540,555400,-1.862689,0.723049,2.494758,0.099923,-0.226893,-0.054225
4.560,555420,-2.523489,1.010353,2.691083,-0.006129,-0.093662,0.041701
4.580,555440,-1.230620,2.375048,2.576161,0.006129,0.035040,0.090331
4.600,555460,-0.986411,2.408567,2.513912,0.124838,0.212371,0.134564
4.620,555480,-1.063026,2.815581,3.155558,0.177864,0.442727,0.303900
4.640,555500,1.575385,6.607996,4.553771,0.207708,0.664957,0.643507
4.660,555520,4.079720,10.429143,6.607996,0.264730,1.154315,1.035873
4.680,555540,2.652776,10.189722,7.613562,0.367185,1.548414,1.459015
4.700,555560,-0.430956,9.394848,9.294291,0.422743,1.816741,1.476202
4.720,555580,2.461239,15.054740,13.460202,0.433401,2.074144,1.327383
4.740,555600,7.584831,19.713858,15.198392,0.549579,2.448790,1.390801
4.760,555620,6.967127,16.294937,13.364434,0.616994,2.502083,1.497386
4.780,555640,6.143522,14.571112,14.010868,0.776738,2.335410,1.570263
4.800,555660,4.199430,13.302185,12.588713,0.795790,2.220965,1.495121
4.820,555680,3.567361,11.022904,10.596737,0.878127,2.108651,1.247711
4.840,555700,4.654328,8.590396,8.738836,0.936616,1.796224,1.146721
4.860,555720,4.869806,5.252879,7.134721,0.739966,1.425707,1.279819
4.880,555740,4.367024,3.610456,5.789180,0.578623,1.223196,1.461547
4.900,555760,3.533842,2.853889,4.189853,0.415815,0.891717,1.529228
4.920,555780,2.073379,2.035071,3.203442,0.449655,0.583420,1.340839
4.940,555800,0.598550,0.531513,2.298434,0.553443,0.354395,1.028145
4.960,555820,-0.196325,0.090980,2.226608,0.517737,0.126969,0.692136
4.980,555840,0.229843,1.182736,2.240973,0.487093,-0.003864,0.390101
5.000,555860,0.761356,1.934515,2.006341,0.450721,-0.093795,0.211971
5.020,555880,0.507571,2.039860,3.098097,0.376911,-0.139893,0.173467
5.040,555900,2.264915,3.265691,5.329493,0.295374,-0.081271,0.091530
5.060,555920,5.238513,6.847417,7.618350,0.001066,-0.084602,0.137495
5.080,555940,4.888960,11.343728,6.612785,-0.275789,-0.274057,0.290844
5.100,555960,0.478840,9.404425,7.168240,0.125770,-0.259268,-0.015855
5.120,555980,1.139640,8.135497,10.055647,0.380375,-0.134430,-0.674017
5.140,556000,4.793192,11.267113,12.042834,-0.067948,-0.104320,-0.779403
5.160,556020,7.077260,16.314091,11.075577,-0.471106,0.005063,-0.377178
5.180,556040,5.568913,15.945383,10.314221,-0.164541,0.157213,-0.017986
5.200,556060,3.663129,13.134590,10.721235,0.131366,0.185325,0.079939
5.220,556080,3.778050,11.434708,10.409989,0.129900,0.261400,-0.009193
5.240,556100,4.793192,10.481815,9.514558,0.072211,0.344136,0.122573
5.260,556120,5.204995,9.203311,8.427590,0.053026,0.380242,0.354795
5.280,556140,4.390966,7.177817,7.201759,0.011858,0.191320,0.468175
5.300,556160,3.428497,5.267244,5.971139,0.053959,-0.025181,0.447257
5.320,556180,2.571373,3.687071,4.505888,0.134164,-0.025314,0.377711
5.340,556200,1.709460,2.710236,3.801992,0.021583,-0.126703,0.329081
5.360,556220,1.359907,2.068590,3.078943,-0.005063,-0.174933,0.269793
5.380,556240,1.388637,1.666364,2.236184,0.019718,-0.238617,0.222896
5.400,556260,1.623269,1.843535,1.312023,0.001732,-0.367718,0.219832
5.420,556280,1.010353,1.853112,0.723049,0.021983,-0.436865,0.213037
5.440,556300,-0.162806,1.853112,0.378284,0.041435,-0.417547,0.122972
5.460,556320,-0.742203,1.833959,1.015141,0.079939,-0.350265,0.003198
5.480,556340,2.427721,4.544195,5.061342,0.133364,-0.093795,-0.104054
5.500,556360,9.423578,10.419566,6.727707,-0.277920,0.130034,0.242348
5.520,556380,7.163452,13.144167,5.406107,-0.727975,-0.093795,0.628319
5.540,556400,2.964022,10.242394,6.239290,-0.261400,-0.086467,0.195717
5.560,556420,4.888960,9.423578,7.958326,-0.058355,0.078207,-0.220631
5.580,556440,9.538500,15.547946,10.117896,-0.496420,0.118309,-0.157879
5.600,556460,10.409989,17.731459,11.214440,-0.622456,0.087799,0.149619
5.620,556480,7.805098,15.456966,10.338163,-0.273657,0.187723,0.108184
5.640,556500,5.899313,14.480132,9.888053,-0.220498,0.131632,-0.113913
5.660,556520,4.534618,13.220781,9.131485,-0.197049,0.161077,-0.428072
5.680,556540,4.232949,11.228806,8.403648,-0.140959,0.337208,-0.581954
5.700,556560,4.874595,9.026140,7.019799,-0.178796,0.396763,-0.352796
5.720,556580,4.319140,6.641516,5.544971,-0.121240,0.416081,-0.001199
5.740,556600,2.250550,4.309563,3.869030,-0.111781,0.237152,0.137095
5.760,556620,-0.239420,2.217031,3.122039,-0.125371,0.145489,0.044233
5.780,556640,-1.187524,1.077391,2.868254,-0.077674,0.204377,-0.167338
5.800,556660,0.430956,1.393425,2.767697,-0.103387,0.369583,-0.279786
5.820,556680,3.203442,3.375824,2.159570,-0.186923,0.236086,-0.163075
5.840,556700,2.322376,3.208230,1.671153,-0.110315,0.056890,-0.013057
5.860,556720,0.047884,1.393425,2.082955,0.033175,0.077807,-0.082070
5.880,556740,-1.130063,0.062249,3.222595,0.059155,0.166406,-0.214502
5.900,556760,0.574608,1.810017,3.557784,-0.033841,0.090198,-0.296306
5.920,556780,2.911349,5.501875,3.696647,0.004397,-0.103521,-0.284982
5.940,556800,4.654328,8.039729,5.746084,0.231023,-0.116044,-0.228492
5.960,556820,5.501875,8.599973,8.863335,0.275922,-0.137628,-0.087000
5.980,556840,3.730166,9.873688,10.137050,-0.029311,-0.269660,0.049962
6.000,556860,1.584962,12.272678,11.300632,-0.127902,-0.201179,-0.165340
6.020,556880,5.128380,15.993267,13.508086,0.098724,0.140026,-0.591413
6.040,556900,7.939173,16.079458,12.679692,0.085801,0.224095,-0.469507
6.060,556920,6.430826,14.638149,12.042834,-0.011858,0.250475,-0.099124
6.080,556940,3.960010,13.733141,10.951078,0.136828,0.474170,-0.094994
6.100,556960,2.547431,12.181698,9.907207,0.145489,0.493355,-0.354528
6.120,556980,2.815581,10.692505,8.523358,0.142025,0.524265,-0.517337
6.140,557000,3.021482,8.422802,6.421249,0.125637,0.526796,-0.439663
6.160,557020,3.485958,6.545747,5.137957,0.143490,0.423542,-0.253273
6.180,557040,3.246537,5.396531,3.749320,0.115645,0.219698,0.011724
6.200,557060,1.029507,4.065354,2.801216,0.101256,0.080871,0.179862
6.220,557080,-0.924162,2.705448,2.135628,0.135230,0.005196,0.092862
6.240,557100,-1.086968,2.422932,1.790863,0.179063,-0.040103,-0.069813
6.260,557120,-0.545878,2.092532,1.412579,0.198115,-0.058622,-0.112447
6.280,557140,-0.402226,1.063026,1.249773,0.191587,-0.158012,-0.052760
6.300,557160,0.708684,1.589750,1.110910,0.227692,-0.268994,0.052227
6.320,557180,1.556231,2.662352,-0.177171,0.283116,-0.489492,0.125104
6.340,557200,1.786075,2.959233,1.651999,0.324951,-0.783266,0.192386
6.360,557220,2.466028,4.113238,5.339070,-0.002665,-0.565167,0.415548
6.380,557240,4.472369,7.398083,8.303091,-0.554375,-0.324685,0.734770
6.400,557260,5.588067,12.248735,6.780379,-0.848949,-0.385571,0.765280
6.420,557280,2.384625,12.837709,5.870583,-0.429538,-0.519868,0.165740
6.440,557300,2.217031,13.110648,8.604761,-0.343870,-0.319089,-0.350265
6.460,557320,8.130709,18.550274,11.927913,-0.809513,-0.014256,-0.311894
6.480,557340,9.715671,19.258959,11.635820,-0.905306,-0.112980,0.024115
6.500,557360,8.159439,17.439365,10.869676,-0.732106,-0.181194,-0.078074
6.520,557380,5.880159,15.093047,10.553641,-0.527063,-0.359191,-0.362789
6.540,557400,4.065354,11.913548,9.883265,-0.551044,-0.692136,-0.913167
6.560,557420,3.356671,8.307879,8.906430,-0.579023,-0.914100,-1.488593
6.580,557440,3.552995,4.568137,7.096414,-0.603005,-1.001632,-1.734671
6.600,557460,3.514688,2.331953,4.721366,-0.832162,-0.858542,-1.609167
6.620,557480,2.106898,2.868254,5.544971,-1.085435,-1.011758,-1.496853
6.640,557500,2.394202,2.676718,3.792415,-0.814176,-1.335643,-1.303534
6.660,557520,3.203442,2.370260,2.078167,-1.017220,-1.434501,-1.163109
6.680,557540,1.101333,1.474828,2.121263,-1.213603,-1.651534,-0.921427
6.700,557560,-0.790087,0.636858,2.073379,-1.054659,-1.674051,-0.953936
6.720,557580,-0.670376,0.474052,2.159570,-0.717717,-1.748260,-0.995904
6.740,557600,-1.412579,0.301669,2.906561,-0.617260,-1.839790,-0.975386
6.760,557620,-0.282516,2.542642,3.313575,-0.610599,-1.785965,-0.955934
6.780,557640,3.093309,6.986280,5.707777,-0.485761,-1.685242,-0.929421
6.800,557660,5.884948,10.108319,8.111555,-0.321620,-1.430237,-0.755288
6.820,557680,3.136404,8.394072,8.585608,-0.397828,-1.188556,-0.544516
6.840,557700,0.641646,7.316680,9.332599,-0.338674,-1.044933,-0.636179
6.860,557720,1.268927,8.714894,11.429919,-0.199047,-0.809913,-0.890651
6.880,557740,5.396531,14.844050,13.867216,-0.637378,-0.518536,-1.144190
6.900,557760,7.805098,16.366762,12.100295,-0.849349,-0.269260,-0.830564
6.920,557780,4.999093,12.612655,13.005303,-0.631783,-0.127236,-0.709456
6.940,557800,3.275268,11.018116,11.631032,-0.561303,0.204910,-0.729175
6.960,557820,2.394202,10.433931,11.607090,-0.649502,0.373847,-0.807648
6.980,557840,2.791639,10.481815,10.673351,-0.567565,0.430470,-0.929821
7.000,557860,3.816358,9.370906,8.341399,-0.296306,0.356127,-0.830430
7.020,557880,3.241749,6.804321,6.081272,0.108583,0.133764,-0.563701
7.040,557900,1.623269,4.434062,5.152322,0.304833,0.040902,-0.380775
7.060,557920,0.316035,2.863465,4.237737,0.394764,0.078606,-0.309496
7.080,557940,-0.986411,1.024718,3.734955,0.337342,0.185191,-0.258202
7.100,557960,-0.914585,0.881066,3.141193,0.182527,0.223828,-0.290977
7.120,557980,-0.248997,1.613692,2.576161,0.069680,0.179063,-0.324018
7.140,558000,-0.541090,2.097321,2.446874,0.020784,0.128968,-0.369317
7.160,558020,-0.780510,1.450886,1.996764,0.090730,0.076608,-0.386104
7.180,558040,-1.335965,0.905008,2.054225,0.161476,-0.033841,-0.365054
7.200,558060,-1.556231,2.308010,4.343082,0.122173,-0.102855,-0.352796
7.220,558080,2.006341,9.150639,8.073248,-0.137495,0.117510,-0.560237
7.240,558100,7.350199,16.429012,9.461885,-0.517870,0.394897,-0.364121
7.260,558120,3.399766,12.449849,6.976704,-0.327216,0.120574,0.297239
7.280,558140,-0.186748,8.762778,7.584831,0.100856,-0.313493,0.360524
7.300,558160,-0.392649,12.315774,10.678140,0.054225,-0.174266,-0.030510
7.320,558180,2.135628,16.668432,12.890382,-0.357859,0.349466,-0.457116
7.340,558200,2.298434,15.303738,11.683704,-0.728508,0.297905,-0.330946
7.360,558220,0.847547,13.450625,11.865664,-0.542251,0.534124,-0.405956
7.380,558240,-0.263362,11.128249,10.984597,-0.655364,0.574760,-0.577957
7.400,558260,-1.106121,9.816227,10.409989,-0.781934,0.589548,-0.651900
7.420,558280,0.459687,9.979033,9.069236,-0.700397,0.704394,-0.830564
7.440,558300,1.642422,8.039729,6.502652,-0.540786,0.610199,-0.833095
7.460,558320,1.302446,5.334281,4.979939,-0.320954,0.385571,-0.652700
7.480,558340,0.316035,2.992752,4.218584,-0.168138,0.195317,-0.425407
7.500,558360,-0.766145,1.369483,3.509900,-0.098325,0.051960,-0.258602
7.520,558380,-1.091756,0.335188,2.964022,-0.064484,-0.063951,-0.159078
7.540,558400,-1.570596,0.244209,2.748544,-0.085135,-0.150685,-0.122573
7.560,558420,-1.216254,0.775721,2.604892,-0.083136,-0.192919,-0.171602
7.580,558440,-0.727837,0.943315,2.916138,0.010525,-0.219299,-0.183459
7.600,558460,-0.541090,0.948104,4.165911,0.059155,-0.306565,-0.096726
7.620,558480,-0.076614,3.462016,6.009446,-0.041035,-0.387570,-0.078207
7.640,558500,0.742203,7.666234,8.839393,-0.102455,-0.421544,-0.158945
7.660,558520,2.331953,11.085154,10.649409,-0.084602,-0.362123,-0.300170
7.680,558540,0.550666,8.020576,10.132261,0.000266,-0.382107,-0.171735
7.700,558560,-1.292869,7.283162,11.956643,0.046897,-0.577424,-0.208107
7.720,558580,-0.641646,11.051635,14.657303,-0.064884,-0.464577,-0.561170
7.740,558600,3.557784,16.745047,15.595830,-0.254605,-0.063285,-0.926224
7.760,558620,4.510676,14.231135,13.350069,-0.274856,-0.189988,-0.528395
7.780,558640,1.019930,10.189722,13.895947,-0.327749,-0.195051,-0.173867
7.800,558660,-1.450886,8.853758,12.976573,-0.466709,0.008660,-0.260867
7.820,558680,-1.546654,8.422802,11.358093,-0.335743,0.148020,-0.628185
7.840,558700,0.191536,8.092402,9.169792,-0.021450,0.264198,-0.873064
7.860,558720,0.483629,6.612785,6.852205,0.157080,0.063951,-0.796190
7.880,558740,-0.660800,5.185841,5.477933,0.301103,-0.166273,-0.645106
7.900,558760,-1.513135,4.367024,4.601655,0.514939,-0.237418,-0.570763
7.920,558780,-1.388637,3.533842,3.557784,0.782467,-0.177198,-0.491490
7.940,558800,-1.230620,2.710236,2.375048,0.893449,-0.191720,-0.320155
7.960,558820,-1.479617,2.011129,1.723825,0.942211,-0.235153,-0.093129
7.980,558840,-1.910573,1.446098,1.661576,0.927423,-0.304966,0.093662
8.000,558860,-2.212242,1.307234,2.015918,0.883057,-0.289245,0.239550
8.020,558880,-2.370260,1.063026,2.226608,0.809513,-0.224761,0.382907
8.040,558900,-2.422932,2.389413,3.337517,0.660161,-0.197715,0.520135
8.060,558920,-0.588974,8.116343,6.042965,0.469773,-0.188655,0.462446
8.080,558940,3.452439,14.561535,8.082825,0.324152,-0.027312,0.326550
8.100,558960,1.225831,10.433931,7.240066,0.190254,-0.020651,0.814043
8.120,558980,-3.773262,8.738836,7.929596,-0.115645,-0.246744,1.076775
8.140,559000,-3.806781,12.531252,9.811439,-0.094727,0.138294,0.804317
8.160,559020,0.512359,19.177555,12.114660,-0.245545,0.783000,0.151351
8.180,559040,3.174711,18.521544,11.549629,-0.320155,0.767812,0.088199
8.200,559060,1.144428,14.719552,10.520123,-0.358525,0.480565,0.186391
8.220,559080,-0.751779,12.564771,9.763555,-0.321221,0.556240,0.033574
8.240,559100,-1.771709,10.726024,9.337387,-0.389302,0.623922,-0.135363
8.260,559120,-0.881066,9.902418,8.049306,-0.390234,0.705593,-0.325484
8.280,559140,0.588974,8.441956,5.683835,-0.310429,0.669221,-0.338674
8.300,559160,0.890643,5.669470,4.170700,-0.232489,0.415681,-0.104853
8.320,559180,0.306458,3.327940,3.586514,-0.123639,0.270459,0.169870
8.340,559200,0.129287,1.752556,2.786851,-0.065550,0.086067,0.368784
8.360,559220,0.153229,0.612916,1.829170,-0.011191,-0.098591,0.496286
8.380,559240,-0.138864,0.081403,1.695095,-0.022916,-0.207041,0.557573
8.400,559260,-0.574608,-0.244209,1.929727,-0.081671,-0.242214,0.538920
8.420,559280,-0.962469,-0.430956,2.413355,-0.152550,-0.254338,0.447657
8.440,559300,-1.106121,0.316035,3.375824,-0.203577,-0.266063,0.314959
8.460,559320,-0.426168,3.284845,5.051765,-0.247011,-0.253806,0.077940
8.480,559340,1.383849,7.852982,7.331046,-0.224495,-0.257403,-0.112980
8.500,559360,3.275268,12.531252,8.566454,-0.124305,-0.317757,-0.128035
8.520,559380,1.340753,10.429143,8.571242,0.099124,-0.308430,0.177464
8.540,559400,-1.173159,7.852982,9.825804,0.175732,-0.313360,0.366253
8.560,559420,-0.201113,11.602302,12.224793,0.110848,-0.252606,0.176531
8.580,559440,4.443638,17.640478,12.598289,-0.059288,0.028645,-0.090864
8.600,559460,4.726154,15.902287,12.378023,-0.063818,0.096459,0.282184
8.620,559480,2.633622,13.129802,12.703634,-0.119242,0.124571,0.413417
8.640,559500,0.770933,11.305421,11.635820,-0.289112,0.229691,0.214103
8.660,559520,0.368707,10.237606,10.735600,-0.387037,0.341738,-0.081937
8.680,559540,1.312023,9.878476,9.442732,-0.340406,0.361190,-0.262599
8.700,559560,2.001553,8.963891,7.374141,-0.299904,0.292309,-0.162942
8.720,559580,1.426944,7.182605,5.549759,-0.142957,0.134164,0.051960
8.740,559600,0.809240,5.219360,4.194642,0.062752,0.012124,0.164940
8.760,559620,0.196325,3.203442,3.217807,0.242747,-0.027312,0.232355
8.780,559640,-0.526724,1.584962,2.413355,0.255271,-0.076608,0.321753
8.800,559660,-1.484405,1.048660,2.346318,0.099390,-0.059821,0.306432
8.820,559680,-1.905785,1.388637,2.772485,-0.020651,-0.014655,0.176398
8.840,559700,-1.584962,1.675941,2.652776,-0.066083,0.069680,0.022383
8.860,559720,-1.192312,1.810017,2.035071,-0.120574,0.052360,0.034907
8.880,559740,-1.192312,2.657564,2.317587,-0.142291,-0.023715,0.186257
8.900,559760,0.746991,6.607996,4.271256,-0.182394,-0.138294,0.397296
8.920,559780,4.314352,11.013328,5.793968,-0.175599,-0.327349,0.619392
8.940,559800,2.011129,10.175357,6.406884,-0.224095,-0.305100,0.946475
8.960,559820,-2.432509,8.599973,7.857770,-0.409153,-0.221564,1.106619
8.980,559840,-1.077391,10.726024,8.762778,-0.525064,-0.260201,1.090498
9.000,559860,1.944092,14.528016,10.098742,-0.557306,-0.138827,0.828165
9.020,559880,6.378153,17.846380,12.291832,-0.590881,-0.177730,0.670020
9.040,559900,5.276821,15.380352,13.321339,-0.739433,0.139760,0.760884
9.060,559920,3.361459,12.727576,12.057199,-0.856410,0.379043,0.633248
9.080,559940,1.805228,10.706870,11.109096,-0.925158,0.373580,0.379709
9.100,559960,1.321599,9.519346,10.352529,-0.991240,0.527063,0.015455
9.120,559980,2.829947,9.054871,9.002198,-0.915432,0.530660,-0.219165
9.140,560000,2.930503,7.000646,7.307104,-0.733704,0.423542,-0.171335
9.160,560020,1.551443,4.299986,5.908890,-0.625654,0.327882,-0.043300
9.180,560040,0.086191,2.063802,4.568137,-0.526530,0.390634,0.016654
9.200,560060,-0.541090,0.876278,3.921702,-0.421011,0.363455,0.051294
9.220,560080,-0.746991,0.454898,3.447650,-0.311628,0.195850,0.090464
9.240,560100,-0.325611,0.598550,3.447650,-0.228358,0.045832,0.011591
9.260,560120,0.660800,1.130063,3.318364,-0.135363,-0.010925,-0.053559
9.280,560140,1.067814,0.818817,3.289633,-0.054758,-0.016787,-0.023449
9.300,560160,0.684742,0.335188,3.825934,0.000266,-0.088199,0.040902
9.320,560180,1.651999,2.020706,5.319916,0.040236,-0.213703,0.035440
9.340,560200,3.428497,5.832275,8.192958,0.022916,-0.320821,-0.044632
9.360,560220,4.678270,9.495404,10.797850,-0.076075,-0.409286,-0.138427
9.380,560240,2.236184,7.977480,10.299856,0.096193,-0.243946,-0.079939
9.400,560260,1.604115,6.742072,11.104307,0.381974,-0.247544,-0.168671
9.420,560280,3.280056,8.829816,13.129802,0.362922,-0.429538,-0.265796
9.440,560300,5.880159,14.585477,15.313314,0.045698,-0.426873,-0.300969
9.460,560320,6.200983,14.997279,14.666880,0.014123,0.045432,-0.053426
9.480,560340,4.012682,11.722012,14.188039,0.168271,0.409286,0.026247
9.500,560360,2.054225,10.228029,13.259089,0.013989,0.552377,-0.065949
9.520,560380,-0.047884,8.935161,12.392388,-0.225161,0.757553,-0.293508
9.540,560400,0.497994,8.686164,10.520123,-0.364787,0.860674,-0.506412
9.560,560420,2.015918,8.662222,8.212111,-0.304433,0.836692,-0.419412
9.580,560440,1.814805,7.287950,5.635951,-0.012257,0.730640,-0.223562
9.600,560460,1.374272,5.219360,3.931279,0.223296,0.498685,-0.023449
9.620,560480,0.028730,3.227384,2.968810,0.305100,0.350798,0.146554
9.640,560500,-1.340753,1.987187,2.968810,0.293642,0.316291,0.227959
9.660,560520,-1.872266,1.149217,3.050213,0.229158,0.307231,0.208907
9.680,560540,-1.493982,0.809240,3.289633,0.130567,0.301902,0.152683
9.700,560560,-0.560243,0.928950,3.016694,0.007727,0.211038,0.217167
9.720,560580,-0.665588,1.221043,2.619257,-0.045832,0.108450,0.329348
9.740,560600,-0.986411,1.733402,3.055001,0.023715,0.010392,0.373314
9.760,560620,-0.459687,4.007894,4.850653,0.000000,-0.121640,0.284715
9.780,560640,1.273715,7.354988,7.393295,-0.021317,-0.174533,0.188922
9.800,560660,3.213019,9.763555,9.476251,-0.140026,-0.130300,0.263931
9.820,560680,2.475605,10.180145,8.623915,-0.223828,-0.234354,0.584352
9.840,560700,1.192312,10.467450,9.313444,0.009326,-0.354129,0.618193
9.860,560720,1.843535,12.464214,12.339716,0.115112,-0.408753,0.387170
9.880,560740,6.004658,17.606958,16.314091,-0.104187,-0.128568,0.269127
9.900,560760,5.712565,16.371552,14.068329,-0.479100,0.239550,0.358126
9.920,560780,3.385401,13.302185,12.310986,-0.286847,0.274856,0.220631
9.940,560800,1.355118,10.639832,11.104307,0.047963,0.346401,-0.094328
9.960,560820,0.675165,8.805874,10.290278,-0.087133,0.353862,-0.366919
9.980,560840,2.188300,8.633492,8.106767,-0.209972,0.385305,-0.297106
10.000,560860,2.456451,8.101978,6.277597,0.078873,0.559438,0.089798
10.020,560880,0.359130,5.664681,4.730943,0.361190,0.765946,0.502948
10.040,560900,-1.216254,4.793192,3.821146,0.446458,0.961796,0.798322
10.060,560920,-0.545878,4.453215,2.164358,0.762882,1.167372,1.072245
10.080,560940,-0.521936,3.438074,1.168370,1.116611,1.448490,1.397862
10.100,560960,-1.019930,2.494758,1.259350,1.329515,1.748660,1.632882
10.120,560980,0.416591,2.566584,1.441309,1.650335,1.915732,1.708158
10.140,561000,0.770933,2.078167,2.743755,1.678314,1.949440,1.904274
10.160,561020,-0.407014,1.963245,3.007117,1.477534,1.690704,2.176066
10.180,561040,-2.341529,2.049437,5.104438,1.278753,1.435034,2.342338
10.200,561060,-1.972822,3.351882,8.499416,1.079706,1.331513,2.004730
10.220,561080,2.140416,7.829040,10.352529,0.849749,1.278887,1.240250
10.240,561100,2.796427,10.204087,9.595961,0.303900,1.031210,0.811645
10.260,561120,0.684742,9.423578,9.830592,0.165473,0.634447,0.643374
10.280,561140,1.862689,10.093954,10.486604,0.255937,0.436732,0.117776
10.300,561160,6.220136,14.652514,11.856087,-0.052760,0.173334,-0.163608
10.320,561180,5.990293,15.773001,11.152191,-0.486427,0.078473,0.133498
10.340,561200,3.126827,14.930242,11.171345,-0.318423,0.204910,0.148686
10.360,561220,1.661576,13.441049,9.974244,-0.108184,0.416081,-0.276055
10.380,561240,0.976834,11.678916,9.303867,-0.114712,0.419545,-0.714119
10.400,561260,2.537854,10.749966,8.264784,-0.152949,0.438198,-0.870533
10.420,561280,3.552995,8.757990,6.440403,-0.197848,0.349599,-0.624588
10.440,561300,2.920926,6.473921,5.070919,-0.114179,0.259268,-0.369051
10.460,561320,2.341529,4.218584,3.907337,-0.060354,0.074743,-0.212371
10.480,561340,1.532289,2.494758,2.959233,-0.100456,-0.088466,-0.051560
10.500,561360,0.905008,2.135628,2.557007,-0.220364,-0.185724,0.130833
10.520,561380,0.727837,2.418144,2.446874,-0.285115,-0.219432,0.179462
10.540,561400,1.058237,2.456451,2.470816,-0.275256,-0.238217,0.132165
10.560,561420,1.206678,1.709460,2.102109,-0.285381,-0.250475,0.221830
10.580,561440,1.240196,1.838747,1.886631,-0.370116,-0.357593,0.412750
10.600,561460,1.762132,3.591303,2.595315,-0.404757,-0.467242,0.505613
10.620,561480,3.136404,6.435614,4.912902,-0.433268,-0.499884,0.500816
10.640,561500,4.007894,9.275137,7.015011,-0.608334,-0.540119,0.577424
10.660,561520,1.991976,9.768343,6.947973,-0.829498,-0.412884,0.648570
10.680,561540,1.886631,11.027693,6.627151,-0.844553,-0.357726,0.445792
10.700,561560,3.639187,12.430696,8.010999,-0.662159,-0.490557,0.273790
10.720,561580,4.946421,15.562311,12.378023,-0.828432,-0.456051,0.093928
10.740,561600,6.301539,18.253393,13.493721,-1.022150,-0.250475,0.028511
10.760,561620,4.414908,15.629349,11.286267,-0.841489,-0.055025,-0.148020
10.780,561640,2.686294,13.326127,10.438720,-0.618193,0.053026,-0.404224
10.800,561660,1.541866,11.654974,9.763555,-0.462312,0.171469,-0.648436
10.820,561680,2.331953,9.236830,9.002198,-0.316957,0.376511,-0.820971
10.840,561700,3.404555,6.809110,7.177817,-0.394098,0.258735,-0.628052
10.860,561720,3.327940,4.989516,5.511452,-0.251807,0.254605,-0.271259
10.880,561740,2.547431,3.189077,4.462792,-0.205443,0.136695,0.060753
10.900,561760,1.422156,1.733402,4.031836,-0.174133,-0.013856,0.216900
10.920,561780,0.770933,0.047884,3.347094,-0.133631,-0.110449,0.256204
10.940,561800,0.019154,-0.933739,2.293645,-0.110982,-0.214369,0.225694
10.960,561820,-0.181959,0.000000,1.805228,-0.077407,-0.317357,0.102455
10.980,561840,0.229843,0.656011,2.298434,0.097659,-0.312560,-0.042900
11.000,561860,0.311246,0.761356,3.112462,0.198781,-0.319489,-0.128435
11.020,561880,1.254562,2.868254,5.444415,0.211971,-0.382107,-0.181328
11.040,561900,5.319916,8.039729,8.082825,0.109250,-0.349865,-0.093662
11.060,561920,6.263232,11.492168,8.350976,0.042900,-0.415948,0.298838
11.080,561940,2.355895,9.878476,8.695741,0.276988,-0.525997,0.377178
11.100,561960,-0.272939,7.149086,10.611102,0.530660,-0.703461,-0.024914
11.120,561980,0.617704,8.111555,13.517663,0.382374,-0.769544,-0.625387
11.140,562000,7.412448,15.021221,14.049175,-0.009992,-0.813377,-0.861073
11.160,562020,8.384495,15.739482,12.220005,-0.158412,-0.822436,-0.516005
11.180,562040,5.487510,12.890382,12.449849,-0.101922,-1.032675,-0.412750
11.200,562060,3.145981,10.783484,11.927913,-0.234620,-0.921028,-0.739433
11.220,562080,1.752556,9.548077,11.429919,-0.554908,-0.913034,-1.225461
11.240,562100,2.169147,9.107543,10.180145,-0.766479,-0.719182,-1.520835
11.260,562120,2.806004,8.178593,7.723695,-0.820438,-0.728642,-1.490591
11.280,562140,2.619257,6.354211,5.477933,-0.782734,-0.736103,-1.354828
11.300,562160,2.025495,4.405331,4.252102,-0.647770,-0.814576,-1.256237
11.320,562180,1.479617,3.308787,2.657564,-0.497885,-1.017220,-1.100890
11.340,562200,0.751779,2.552219,1.570596,-0.350931,-1.039870,-0.897179
11.360,562220,0.359130,2.245761,1.589750,-0.302302,-0.934084,-0.701995
11.380,562240,0.277727,2.260126,1.776498,-0.331346,-0.791527,-0.614196
11.400,562260,0.636858,2.284068,2.140416,-0.325617,-0.732905,-0.534124
11.420,562280,1.154005,2.145205,2.188300,-0.312560,-0.732639,-0.299104
11.440,562300,1.034295,2.461239,2.312799,-0.313626,-0.752357,0.108983
11.460,562320,2.308010,5.746084,4.673482,-0.326550,-0.686541,0.294574
11.480,562340,4.817134,10.218452,7.125144,-0.340006,-0.752224,0.292576
11.500,562360,5.918467,11.884817,7.067683,-0.370916,-0.815908,0.256070
11.520,562380,2.298434,9.064447,7.192182,-0.226093,-0.927423,0.227426
11.540,562400,0.991199,8.226477,8.753201,-0.125237,-0.844420,0.127236
11.560,562420,3.141193,11.659762,10.831368,-0.270326,-0.570763,-0.026913
11.580,562440,7.474698,16.587029,11.592725,-0.592080,-0.207308,-0.015322
11.600,562460,5.525817,15.634137,11.626244,-0.650701,0.041568,-0.051694
11.620,562480,2.920926,13.340492,10.644621,-0.512674,0.308297,-0.413816
11.640,562500,1.240196,11.578360,10.309433,-0.550378,0.687074,-0.778204
11.660,562520,1.436521,10.663774,9.773131,-0.355061,0.724778,-0.797256
11.680,562540,3.265691,10.261548,7.848193,-0.093528,0.905173,-0.548513
11.700,562560,4.309563,9.576807,5.884948,-0.067282,0.770876,0.014789
11.720,562580,3.059790,8.101978,4.299986,0.014522,0.951404,0.775939
11.740,562600,-0.450110,6.114791,4.309563,0.421544,1.138061,1.450489
11.760,562620,-1.618480,2.911349,3.677494,0.879193,1.582521,1.637678
11.780,562640,-0.416591,0.933739,2.054225,1.293276,1.818873,1.661927
11.800,562660,-1.608904,-1.953669,1.977611,1.629551,2.093329,1.706159
11.820,562680,-1.417367,-0.196325,2.427721,1.428106,2.328482,1.585985
11.840,562700,3.011906,3.610456,2.695871,1.324585,1.989675,1.838058
11.860,562720,1.982399,2.600103,3.955221,1.438897,1.615429,2.040170
11.880,562740,3.198653,4.616021,7.474698,1.353363,1.207075,1.816208
11.900,562760,5.640739,7.785944,9.533711,1.085835,0.922760,1.623423
11.920,562780,2.978387,7.977480,9.935937,0.611931,0.747427,1.362822
11.940,562800,-0.478840,6.670246,9.246407,0.755688,0.658828,0.845086
11.960,562820,1.154005,6.282385,10.156203,0.763415,0.472038,0.241149
11.980,562840,4.778827,9.131485,11.985373,0.274057,0.224894,-0.176931
12.000,562860,6.220136,13.953407,13.412318,-0.600873,0.298971,-0.384905
12.020,562880,6.564901,15.543158,12.124237,-0.822303,0.577291,-0.326550
12.040,562900,5.621585,14.164097,10.893618,-0.835626,0.550112,-0.101922
12.060,562920,3.653552,12.052411,10.022128,-0.909969,0.368917,-0.034507
12.080,562940,1.929727,10.122684,9.141062,-0.652167,0.365853,-0.080072
12.100,562960,1.728614,8.331821,8.336611,-0.632582,0.454585,-0.298571
12.120,562980,2.494758,6.454768,6.052542,-0.474436,0.446325,-0.326550
12.140,563000,1.747767,4.074931,4.908113,-0.265530,0.296440,-0.239017
12.160,563020,0.943315,2.638410,3.768473,-0.265397,0.294308,-0.273790
12.180,563040,1.446098,3.213019,3.193865,-0.233554,0.047963,-0.384772
12.200,563060,2.183512,2.849100,2.782062,0.008793,-0.187323,-0.177864
12.220,563080,2.173935,2.686294,2.748544,-0.130167,-0.108983,-0.051161
12.240,563100,1.781286,3.236961,2.351106,-0.145089,-0.225827,0.143490
12.260,563120,0.885855,2.643199,1.972822,-0.058355,-0.325484,0.190521
12.280,563140,0.215478,1.388637,1.910573,-0.004263,-0.385571,0.145888
12.300,563160,0.387861,1.905785,2.485181,0.010259,-0.388636,0.229957
12.320,563180,3.725378,6.215348,6.517017,-0.123106,-0.217167,0.221963
12.340,563200,6.402095,11.276690,7.503428,-0.413283,-0.280185,0.396763
12.360,563220,3.998317,10.663774,7.149086,-0.198381,-0.242214,0.203577
12.380,563240,2.432509,9.002198,7.484274,0.187989,-0.255404,-0.093662
12.400,563260,3.682282,9.423578,8.384495,0.074077,-0.168538,-0.216634
12.420,563280,7.532158,15.710752,11.252748,-0.224095,-0.075675,-0.153083
12.440,563300,7.829040,18.195932,12.435484,-0.407288,0.242481,0.023982
12.460,563320,4.917690,15.327680,12.018892,-0.265930,0.185858,-0.067149
12.480,563340,3.538630,13.024457,11.477803,-0.253806,0.365054,-0.286181
12.500,563360,3.533842,11.798626,10.007763,-0.337608,0.309363,-0.307631
12.520,563380,3.404555,11.434708,9.064447,-0.311894,0.236219,-0.309763
12.540,563400,3.155558,9.533711,8.317456,0.058622,0.440862,-0.370916
12.560,563420,2.561796,5.774815,6.785168,0.143890,0.509476,-0.400360
12.580,563440,2.293645,2.887407,5.688623,-0.014389,0.437265,-0.208374
12.600,563460,0.708684,1.254562,4.663905,-0.282317,0.226493,0.081538
12.620,563480,0.076614,1.599327,3.495534,-0.395430,0.101256,0.183060
12.640,563500,-0.330400,1.996764,2.892196,-0.293375,0.085002,0.100590
12.660,563520,0.627281,2.753332,2.494758,-0.208907,0.025181,0.017720
12.680,563540,1.034295,2.806004,2.422932,-0.112447,-0.048496,0.069413
12.700,563560,0.608127,2.293645,2.700660,0.001199,-0.120974,0.137761
12.720,563580,0.114922,2.106898,3.122039,0.103920,-0.237152,0.163874
12.740,563600,0.000000,2.652776,4.955997,0.253406,-0.297372,0.112047
12.760,563620,2.772485,5.612009,8.997410,0.174933,-0.000933,-0.086734
12.780,563640,6.071695,10.127473,8.173804,-0.265663,-0.080072,0.097259
12.800,563660,2.408567,9.485827,8.015787,0.019052,-0.156147,0.333211
12.820,563680,0.225055,7.067683,9.864111,0.467908,-0.071812,0.161210
12.840,563700,2.035071,8.671799,11.530476,0.247943,-0.269127,-0.358525
12.860,563720,5.382165,14.350845,13.144167,-0.166006,-0.356127,-0.738368
12.880,563740,5.813122,15.581465,13.244724,-0.107251,0.150152,-0.590481
12.900,563760,3.926491,13.096283,12.425907,0.301769,0.556240,-0.439796
12.920,563780,2.020706,11.439496,11.765107,0.201046,0.485228,-0.677747
12.940,563800,1.264138,10.371682,10.888829,0.206109,0.566100,-1.037738
12.960,563820,1.819593,8.844181,9.006987,0.237951,0.641375,-1.225328
12.980,563840,1.915361,7.575254,6.761226,0.322153,0.607401,-1.126737
13.000,563860,2.106898,6.382942,5.051765,0.428605,0.490691,-0.949939
13.020,563880,2.308010,5.315128,3.849876,0.576358,0.327616,-0.845619
13.040,563900,1.580173,3.591303,2.887407,0.683609,0.191320,-0.734371
13.060,563920,0.378284,2.135628,2.370260,0.614729,0.073677,-0.631250
13.080,563940,-0.502782,2.054225,2.035071,0.475236,-0.005196,-0.610332
13.100,563960,-0.320823,2.671929,2.322376,0.394498,0.023449,-0.662292
13.120,563980,0.526724,3.217807,2.552219,0.307231,0.033574,-0.606069
13.140,564000,1.211466,3.438074,2.475605,0.205842,-0.020784,-0.358525
13.160,564020,1.264138,3.519476,2.087744,0.096726,-0.161476,-0.021051
13.180,564040,0.339977,3.883395,2.911349,0.016654,-0.287779,0.252473
13.200,564060,1.053449,7.647080,5.975927,-0.213570,-0.342005,0.282317
13.220,564080,3.960010,13.503298,7.254431,-0.379443,-0.459381,0.244613
13.240,564100,-0.114922,11.698070,6.186617,-0.195717,-0.380775,0.062086
13.260,564120,-1.134852,10.285490,6.464345,-0.102055,-0.336409,-0.350931
13.280,564140,0.220267,12.459426,8.025364,-0.194917,-0.247943,-0.509876
13.300,564160,0.799663,16.883911,10.290278,-0.446591,0.033041,-0.661493
13.320,564180,0.282516,17.257406,10.529699,-0.389568,0.463511,-0.947940
13.340,564200,-0.450110,14.106636,8.925584,-0.298172,0.704793,-1.287813
13.360,564220,-0.847547,12.052411,8.207323,-0.190254,0.691470,-1.432369
13.380,564240,-1.355118,10.788273,7.867347,-0.171602,0.633248,-1.424508
13.400,564260,-1.604115,9.318233,7.311892,-0.177198,0.692802,-1.451554
13.420,564280,-0.981623,7.953538,6.426037,-0.168937,0.636312,-1.441296
13.440,564300,-0.488417,6.416461,5.468357,-0.162409,0.436998,-1.280752
13.460,564320,-1.106121,5.032612,4.692636,-0.179995,0.269793,-1.008028
13.480,564340,-2.978387,3.950433,3.950433,-0.233288,0.174666,-0.762882
13.500,564360,-3.873818,3.581726,3.845088,-0.232888,0.182127,-0.645106
13.520,564380,-2.260126,3.442862,3.447650,-0.186524,0.109250,-0.472038
13.540,564400,-1.072602,3.471592,2.791639,-0.148553,-0.065550,-0.194784
13.560,564420,-0.502782,3.576937,2.571373,-0.068747,-0.243946,0.084602
13.580,564440,-0.857124,2.839523,2.652776,0.079006,-0.370649,0.300703
13.600,564460,-1.833959,2.102109,3.213019,0.155747,-0.446591,0.481897
13.620,564480,-2.221819,2.604892,4.256891,0.148819,-0.583819,0.720914
13.640,564500,-0.584185,7.608773,7.412448,0.065283,-0.785665,0.901043
13.660,564520,1.829170,13.527240,10.132261,0.058622,-0.744230,0.858809
13.680,564540,-2.403779,10.984597,9.504981,0.103920,-0.490957,0.743430
13.700,564560,-3.485958,8.307879,9.706094,0.166806,-0.564101,0.542118
13.720,564580,0.402226,11.477803,10.108319,0.143757,-0.860674,0.515072
13.740,564600,0.593762,15.121778,10.625467,-0.053825,-0.858142,0.253939
13.760,564620,-1.489193,14.585477,11.032481,-0.021583,-0.534124,-0.067815
13.780,564640,-1.996764,11.640609,10.553641,0.028112,-0.224361,-0.234087
13.800,564660,-1.623269,9.749189,8.767567,-0.216234,-0.017320,-0.316424
13.820,564680,-1.120486,9.528923,7.776367,-0.377044,0.110182,-0.352930
13.840,564700,0.469264,9.868899,7.426814,-0.279119,0.134963,-0.338008
13.860,564720,1.316811,8.508993,6.402095,-0.199714,0.097659,-0.312161
13.880,564740,1.283292,6.856994,5.482722,-0.153749,-0.033175,-0.227959
13.900,564760,1.139640,5.487510,4.711789,-0.079539,-0.232355,-0.176931
13.920,564780,0.565032,4.261679,4.534618,-0.049828,-0.548380,-0.173867
13.940,564800,0.134075,3.356671,3.974375,-0.032775,-0.811511,-0.231423
13.960,564820,-0.081403,2.983175,3.600879,-0.032242,-1.019885,-0.304700
13.980,564840,0.148441,2.997540,3.284845,0.000133,-1.249443,-0.323352
14.000,564860,0.430956,2.849100,2.724602,-0.017187,-1.429172,-0.289778
14.020,564880,-0.622492,2.624045,1.872266,-0.100456,-1.611832,-0.169470
14.040,564900,-2.829947,2.887407,2.097321,-0.206375,-1.667122,-0.126570
14.060,564920,-4.237737,4.194642,4.395754,-0.216900,-1.500717,-0.217567
14.080,564940,-0.143652,10.453085,7.675811,-0.276855,-1.133665,-0.478966
14.100,564960,4.237737,13.876793,4.999093,-0.392899,-0.901576,-0.241015
14.120,564980,-1.460463,9.988609,5.808333,-0.639643,-0.863072,0.256603
14.140,565000,-1.474828,11.166556,8.815451,-0.455251,-0.816574,0.014389
14.160,565020,0.105345,13.680469,10.074800,-0.582087,-0.406755,-0.252606
14.180,565040,0.545878,14.638149,11.061212,-0.969124,-0.133364,-0.275522
14.200,565060,0.311246,12.703634,11.176133,-1.094761,0.101389,-0.166539
14.220,565080,0.675165,10.998962,10.706870,-1.103954,0.068747,-0.199714
14.240,565100,1.312023,9.777920,9.327810,-1.089965,-0.040636,-0.226760
14.260,565120,1.292869,8.135497,9.141062,-1.094495,-0.134430,-0.190787
14.280,565140,1.321599,7.259220,8.930372,-1.232655,-0.305233,-0.247011
14.300,565160,1.240196,5.688623,8.039729,-1.300470,-0.456717,-0.386371
14.320,565180,1.508347,4.405331,7.388506,-1.341639,-0.593812,-0.525464
14.340,565200,0.727837,3.988740,6.789956,-1.455951,-0.775273,-0.516005
14.360,565220,-0.933739,4.544195,6.138733,-1.479933,-0.704260,-0.370116
14.380,565240,-1.063026,4.620809,5.449203,-1.062119,-0.417014,-0.153216
14.400,565260,-0.909797,3.744531,4.127604,-0.648436,-0.106585,0.116844
14.420,565280,-2.628834,2.652776,3.155558,-0.368917,0.201979,0.518802
14.440,565300,-3.883395,2.777274,3.150769,0.061819,0.633381,0.819106
14.460,565320,-3.093309,2.973598,3.495534,0.691470,0.997769,0.811112
14.480,565340,-1.900996,3.050213,3.744531,1.231723,1.070247,0.636979
14.500,565360,-1.939303,5.511452,5.425261,1.662992,1.025214,0.636979
14.520,565380,1.321599,12.081141,9.318233,2.061487,1.424908,0.680678
14.540,565400,0.775721,9.897630,8.748413,1.667389,2.229891,1.247711
14.560,565420,-3.447650,7.398083,10.247183,1.631417,2.351398,1.474470
14.580,565440,-0.665588,7.393295,13.656527,2.076808,2.341139,0.945942
14.600,565460,2.418144,9.399636,13.910312,1.724945,1.782368,0.340273
14.620,565480,2.217031,11.473015,14.537593,1.028145,1.108617,-0.264864
14.640,565500,3.050213,9.988609,14.121001,0.795390,0.664025,-0.797655
14.660,565520,4.098873,8.825027,12.842498,0.346801,-0.139760,-1.125404
14.680,565540,1.958457,8.719683,11.415554,-0.224228,-1.061853,-1.342305
14.700,565560,-0.320823,8.087613,10.587160,-0.543717,-1.634081,-1.689372
14.720,565580,-1.182736,7.584831,9.643845,-0.616061,-1.968891,-2.018586
14.740,565600,-1.115698,7.781156,7.920019,-0.712121,-2.125571,-1.936649
14.760,565620,-1.335965,7.168240,5.995081,-0.662159,-2.155282,-1.507778
14.780,565640,-2.245761,6.392519,4.769250,-0.568364,-2.090798,-1.073711
14.800,565660,-3.198653,5.659893,3.983952,-0.422077,-1.853913,-0.742764
14.820,565680,-3.236961,5.046977,3.265691,-0.281651,-1.571596,-0.471239
14.840,565700,-2.753332,4.467580,2.456451,-0.135096,-1.314859,-0.192253
14.860,565720,-2.609680,3.711013,2.403779,0.030243,-1.076375,0.085668
14.880,565740,-1.771709,3.371036,2.576161,0.184792,-0.863205,0.286181
14.900,565760,-1.010353,3.074155,2.413355,0.248077,-0.694934,0.547580
14.920,565780,-1.029507,2.724602,2.269703,0.287646,-0.676681,0.896913
14.940,565800,-2.351106,3.562572,4.505888,0.257136,-0.574493,1.035740
14.960,565820,2.193089,10.989386,7.220912,0.249675,-0.256070,0.727709
14.980,565840,3.466804,11.784261,6.459556,0.312960,-0.012657,0.844420
15.000,565860,-0.560243,10.888829,7.805098,0.136029,-0.202911,1.005763
15.020,565880,0.004788,13.081918,8.212111,0.343204,-0.090597,0.959398
15.040,565900,2.346318,15.696386,9.591172,0.176931,0.071545,1.285149
15.060,565920,1.666364,16.539145,11.353305,0.092462,-0.008793,1.498052
15.080,565940,-0.378284,14.618996,10.194510,0.194251,0.347867,1.367352
15.100,565960,-1.599327,12.631808,10.060435,0.292842,0.660427,1.182161
15.120,565980,-1.766921,10.697293,9.126697,0.420744,1.103421,1.038005
15.140,566000,-0.804452,9.045294,8.140285,0.382374,1.440896,0.806582
15.160,566020,1.302446,7.647080,7.704541,0.386637,1.492190,0.680012
15.180,566040,2.102109,6.248867,6.928820,0.301769,1.334444,0.670819
15.200,566060,2.389413,5.353435,6.588843,0.143357,1.132332,0.694401
15.220,566080,2.858677,3.744531,4.462792,0.076475,0.807248,0.760617
15.240,566100,2.585738,2.293645,4.323928,-0.062352,0.390900,0.753023
15.260,566120,2.082955,1.905785,3.385401,-0.148819,-0.040502,0.777804
15.280,566140,0.430956,1.752556,3.643975,-0.166672,-0.432202,0.826433
15.300,566160,-0.296881,1.695095,3.088520,0.032908,-0.519868,0.882923
15.320,566180,1.359907,2.954445,1.656788,0.107917,-0.431669,1.043867
15.340,566200,0.349553,2.590526,3.380613,0.094328,-0.324018,1.343504
15.360,566220,-0.919373,3.217807,6.387730,0.126969,-0.300570,1.424375
15.380,566240,5.238513,9.121908,7.455544,0.161077,-0.002265,1.436366
15.400,566260,4.376601,9.519346,6.684611,0.168937,0.153749,1.923992
15.420,566280,1.335965,8.058883,8.030152,0.302701,0.301369,2.005397
15.440,566300,2.236184,8.762778,10.510546,0.361723,0.331613,1.605836
15.460,566320,4.553771,10.721235,10.702082,0.174933,0.438198,1.093162
15.480,566340,8.513782,14.513651,11.674128,-0.152949,0.644573,0.740632
15.500,566360,8.734048,14.585477,10.917560,-0.018519,0.681611,0.815775
15.520,566380,5.171476,11.243171,11.051635,0.192386,1.060654,0.575692
15.540,566400,4.515464,9.006987,10.807426,0.331879,1.564534,0.147887
15.560,566420,4.261679,8.212111,10.026917,0.419945,1.903874,-0.328548
15.580,566440,5.008670,7.173028,8.202535,0.477368,2.157014,-0.553975
15.600,566460,4.678270,5.741296,5.846641,0.259801,1.805816,-0.557573
15.620,566480,4.079720,5.774815,5.506664,0.053426,1.241715,-0.441262
15.640,566500,3.313575,5.166687,4.884171,0.071279,0.621790,-0.171868
15.660,566520,1.010353,3.251326,4.884171,0.030776,0.328149,-0.212371
15.680,566540,-0.407014,1.968034,5.468357,-0.106985,0.264198,-0.407954
15.700,566560,0.651223,1.608904,4.050989,-0.126836,0.252073,-0.616328
15.720,566580,1.987187,2.082955,3.222595,-0.064084,0.306832,-0.651501
15.740,566600,2.853889,4.343082,3.007117,-0.133631,0.268328,-0.513606
15.760,566620,1.934515,4.434062,2.849100,-0.053559,0.214902,-0.057289
15.780,566640,0.718261,3.150769,2.466028,-0.038504,0.280452,0.244879
15.800,566660,0.876278,3.849876,3.476381,0.003597,0.224095,0.403158
15.820,566680,6.454768,9.591172,7.412448,-0.078207,0.054092,0.582087
15.840,566700,5.276821,12.373235,6.976704,-0.432868,-0.241815,1.019885
15.860,566720,1.106121,12.100295,7.402872,0.017320,-0.339340,0.491890
15.880,566740,3.217807,12.425907,8.255207,0.449522,-0.295907,0.009726
15.900,566760,3.883395,11.999739,9.686940,0.402492,-0.299637,-0.038237
15.920,566780,5.051765,13.733141,11.520899,0.123505,-0.042767,-0.142424
15.940,566800,6.157887,13.919888,9.787497,0.006662,-0.131233,-0.135363
15.960,566820,4.343082,13.225570,9.543288,-0.265130,-0.211172,-0.211704
15.980,566840,3.514688,12.387600,8.576031,-0.405822,-0.324818,-0.239017
16.000,566860,3.260903,10.443508,7.738060,-0.506678,-0.624721,-0.317357
16.020,566880,3.691859,8.667010,7.570466,-0.281518,-0.702795,-0.417680
16.040,566900,3.485958,6.210559,7.264008,-0.221564,-0.553975,-0.364787
16.060,566920,2.351106,3.806781,6.148310,-0.358792,-0.277920,-0.214636
16.080,566940,1.225831,2.418144,3.892972,-0.664424,-0.118443,-0.074876
16.100,566960,-1.532289,1.623269,2.964022,-0.484296,-0.108850,0.158145
16.120,566980,-1.647211,2.384625,2.341529,-0.248210,0.501882,0.191453
16.140,567000,-0.469264,2.087744,2.217031,0.198115,0.946608,0.253939
16.160,567020,2.221819,3.490746,2.504335,0.267795,1.243580,0.199314
16.180,567040,3.687071,4.027047,3.500323,0.293642,0.677881,0.428338
16.200,567060,2.762909,3.562572,2.873042,0.152550,0.567832,0.456850
16.220,567080,1.742979,2.580950,3.495534,-0.060354,0.169737,0.443394
16.240,567100,5.267244,7.781156,8.374918,-0.093262,-0.233421,0.191320
16.260,567120,5.238513,9.868899,9.174581,-0.343603,-0.499484,0.162942
16.280,567140,0.215478,7.805098,8.863335,-0.324551,-0.515738,0.109516
16.300,567160,-0.737414,7.216124,10.692505,-0.229957,-0.424075,-0.462845
16.320,567180,2.528277,10.773908,10.524911,-0.328415,-0.305233,-0.840023
16.340,567200,4.702212,15.308526,11.702858,-0.741698,-0.279386,-0.764214
16.360,567220,5.731719,16.864758,11.085154,-0.420877,0.118043,-0.229291
16.380,567240,2.355895,12.081141,11.037270,0.031709,0.318689,0.308697
16.400,567260,-1.259350,8.710106,12.421119,0.005329,0.602738,0.206109
16.420,567280,-0.914585,7.781156,11.410766,-0.065816,0.786198,-0.509343
16.440,567300,3.438074,8.738836,9.030929,0.039969,0.946475,-1.132732
16.460,567320,4.390966,7.455544,6.947973,0.140825,0.781801,-1.103022
16.480,567340,5.396531,7.671022,5.061342,-0.072345,0.300836,-0.891583
16.500,567360,3.069367,6.124368,3.883395,0.008660,-0.449789,-0.560770
16.520,567380,2.116474,5.319916,4.659117,0.155481,-0.784998,-0.493355
16.540,567400,0.407014,2.992752,4.625597,0.251274,-0.775006,-0.414083
16.560,567420,-0.665588,1.623269,4.347870,0.130567,-0.913567,-0.414882
16.580,567440,0.641646,2.767697,4.764462,-0.090198,-1.020951,-0.303368
16.600,567460,1.312023,3.347094,4.793192,-0.155081,-0.985911,-0.174400
16.620,567480,1.470040,3.950433,4.601655,-0.228625,-0.822570,-0.025847
16.640,567500,0.952892,3.936068,4.242526,-0.274723,-0.529861,0.205309
16.660,567520,2.159570,4.525041,4.970363,-0.453386,-0.292043,0.299504
16.680,567540,4.778827,6.933608,7.704541,-0.647637,-0.322819,0.361456
16.700,567560,6.684611,8.757990,7.149086,-0.794724,-0.484296,0.707458
16.720,567580,2.853889,8.025364,6.636727,-0.707858,-0.508144,0.806182
16.740,567600,3.059790,7.829040,6.646304,-0.489492,-0.566632,0.521600
16.760,567620,3.591303,9.016563,6.675035,-0.413550,-0.526930,0.401959
16.780,567640,5.645528,13.057976,8.226477,-0.514406,-0.506412,0.337342
16.800,567660,7.575254,16.045940,9.050082,-0.249276,-0.468974,0.546515
16.820,567680,4.740520,13.704411,9.758766,-0.013989,-0.239150,0.540253
16.840,567700,3.232172,10.989386,12.435484,0.049296,0.012657,0.283649
16.860,567720,3.007117,9.955091,11.109096,-0.625387,0.371848,-0.111914
16.880,567740,4.639963,10.611102,8.652645,-0.727309,0.612997,-0.144023
16.900,567760,4.352659,9.370906,6.866570,-0.615928,0.717983,-0.092862
16.920,567780,3.983952,6.885724,6.296751,-0.264331,0.487360,-0.090064
16.940,567800,3.438074,4.558560,6.397307,-0.155081,0.314159,-0.130433
16.960,567820,2.422932,3.878607,6.210559,-0.275655,0.303234,0.026247
16.980,567840,1.225831,4.041412,5.932832,-0.427539,0.392100,0.032908
17.000,567860,0.823605,3.974375,4.525041,-0.364521,0.368118,-0.175732
17.020,567880,1.594538,2.983175,3.098097,-0.362123,0.451121,-0.437265
17.040,567900,-0.129287,0.703895,3.011906,0.065417,0.104320,-0.419545
17.060,567920,1.589750,2.250550,2.877831,0.057556,-0.067415,-0.277654
17.080,567940,2.518700,3.208230,3.059790,0.105919,-0.164008,-0.023982
17.100,567960,1.843535,2.686294,3.476381,0.236086,-0.373580,-0.008127
17.120,567980,1.747767,2.667141,6.153099,0.196250,-0.423009,-0.222763
17.140,568000,6.622362,7.508216,9.730036,-0.187057,-0.150951,-0.304700
17.160,568020,4.687847,8.145074,9.490616,-0.344136,-0.376911,0.289245
17.180,568040,-0.483629,5.827487,8.992621,-0.291910,-0.353329,0.292842
17.200,568060,1.168370,6.435614,11.391612,-0.416081,0.002398,-0.337608
17.220,568080,4.065354,9.500193,12.660539,-0.668821,0.059954,-0.751024
17.240,568100,4.994305,11.396400,13.335704,-0.611398,0.089665,-0.643640
17.260,568120,5.544971,12.100295,12.866440,-0.589015,0.305899,-0.216368
17.280,568140,3.366248,9.725247,14.073117,-0.437132,0.520002,0.023449
17.300,568160,1.661576,8.240842,13.685257,-0.468041,0.666689,-0.024381
17.320,568180,1.833959,8.087613,12.856863,-0.364787,0.752224,-0.263798
17.340,568200,2.652776,7.857770,11.224017,-0.254605,0.581954,-0.399294
17.360,568220,2.394202,6.282385,9.911995,-0.111781,0.489758,-0.467375
17.380,568240,2.394202,5.137957,8.125920,0.010658,0.297239,-0.421410
17.400,568260,2.437297,4.616021,6.138733,0.235020,0.037305,-0.254738
17.420,568280,1.738190,3.677494,4.568137,0.401159,-0.066482,-0.028511
17.440,568300,-0.732626,2.466028,5.530606,0.663891,-0.168538,0.030243
17.460,568320,-0.023942,2.815581,3.749320,0.695867,-0.176931,-0.017187
17.480,568340,0.651223,2.695871,3.754108,0.637511,-0.119908,0.085135
17.500,568360,0.555455,3.169923,3.371036,0.574493,-0.234753,0.046764
17.520,568380,0.804452,3.222595,2.959233,0.627652,-0.400227,-0.119242
17.540,568400,0.699107,1.968034,2.638410,0.652966,-0.516537,-0.177064
17.560,568420,1.733402,3.653552,5.310339,0.486427,-0.453119,-0.145489
17.580,568440,8.034941,10.141838,7.144298,0.142691,-0.322819,0.170536
17.600,568460,4.414908,11.113884,5.712565,0.260067,-0.635913,0.532658
17.620,568480,2.427721,9.131485,7.513005,0.506412,-0.598608,-0.073943
17.640,568500,2.748544,8.489840,8.259995,0.571828,-0.653099,-0.462179
17.660,568520,3.926491,11.784261,10.342952,0.053825,-0.503214,-0.404757
17.680,568540,4.065354,14.896723,10.611102,-0.396763,-0.394498,-0.450721
17.700,568560,3.586514,13.656527,10.606314,-0.195317,0.011858,-0.743564
17.720,568580,3.088520,11.808203,10.520123,-0.117243,0.473637,-0.844420
17.740,568600,2.523489,10.903194,9.332599,-0.266596,0.562502,-0.893049
17.760,568620,2.762909,10.481815,8.518570,-0.245279,0.448323,-1.049596
17.780,568640,2.221819,8.968679,7.211336,-0.107651,0.205709,-1.115678
17.800,568660,1.747767,6.512228,5.942409,-0.033041,-0.011724,-1.011225
17.820,568680,0.785298,4.601655,5.305551,-0.097126,-0.146554,-0.748093
17.840,568700,0.153229,4.170700,4.639963,-0.242881,-0.175865,-0.446458
17.860,568720,0.181959,4.687847,4.625597,-0.280185,-0.131632,-0.326683
17.880,568740,0.780510,4.285621,3.687071,-0.054625,-0.238351,-0.270326
17.900,568760,0.148441,2.600103,3.098097,0.029577,-0.469374,-0.209839
17.920,568780,-0.416591,0.890643,3.227384,-0.007461,-0.603404,-0.146554
17.940,568800,-0.363919,0.584185,3.509900,-0.135896,-0.705859,-0.139626
17.960,568820,-0.014365,1.115698,3.500323,-0.196783,-0.817773,-0.115511
17.980,568840,0.028730,3.280056,5.487510,-0.230890,-0.909703,-0.232888
18.000,568860,6.670246,10.711658,7.857770,-0.251274,-0.745029,-0.353063
18.020,568880,3.356671,8.073248,8.192958,-0.176398,-0.870266,0.077807
18.040,568900,-1.484405,4.333505,9.299079,-0.343870,-0.807781,-0.181061
18.060,568920,0.488417,6.512228,10.256760,-0.472971,-0.657896,-0.670553
18.080,568940,3.778050,12.004527,11.760319,-0.612997,-0.443260,-0.949006
18.100,568960,4.687847,15.121778,12.885593,-0.742498,-0.235153,-1.004031
18.120,568980,4.108450,13.321339,13.014880,-0.713986,-0.073544,-1.068515
18.140,569000,3.773262,12.497733,12.708423,-0.287380,0.477101,-0.939413
18.160,569020,3.356671,12.540829,11.702858,-0.302568,0.728375,-0.621257
18.180,569040,2.796427,11.319786,11.156980,-0.215835,0.791660,-0.586217
18.200,569060,2.331953,8.983045,10.342952,-0.100323,0.704394,-0.622190
18.220,569080,0.723049,6.761226,9.121908,-0.032908,0.486161,-0.593678
18.240,569100,-1.197101,5.487510,7.790732,0.041568,0.288845,-0.524798
18.260,569120,-2.389413,4.936844,6.229713,0.184126,0.166006,-0.446724
18.280,569140,-3.313575,4.381389,4.716578,0.351597,0.095260,-0.323619
18.300,569160,-3.792415,4.309563,3.940856,0.453786,0.139493,-0.160943
18.320,569180,-3.193865,4.304775,3.414132,0.522266,0.320421,0.063951
18.340,569200,-3.232172,3.663129,3.102885,0.542384,0.495221,0.378910
18.360,569220,-2.389413,3.888184,3.059790,0.519868,0.686008,0.620325
18.380,569240,-1.048660,4.673482,2.825158,0.522133,0.769810,0.789928
18.400,569260,-0.426168,4.582502,2.566584,0.533058,0.756354,0.925957
18.420,569280,-0.201113,4.094085,2.355895,0.528528,0.663092,0.946874
18.440,569300,1.450886,6.129156,5.224148,0.442194,0.578890,0.827366
18.460,569320,6.210559,10.544065,4.802769,0.213037,0.498285,1.072378
18.480,569340,-0.378284,10.180145,4.817134,0.281384,0.196649,1.009360
18.500,569360,0.186748,11.209652,5.755661,0.399560,0.299504,0.490957
18.520,569380,0.387861,11.966220,8.015787,0.257403,0.217034,0.296573
18.540,569400,2.284068,16.146496,9.782708,-0.254605,0.039436,0.195450
18.560,569420,2.197877,15.332468,8.580819,-1.445959,-0.703727,0.322953
18.580,569440,0.057461,12.842498,11.942278,-0.855078,-0.100723,0.230890
18.600,569460,0.694318,12.531252,10.328587,0.356660,0.819639,0.081271
18.620,569480,-0.502782,10.381259,8.303091,0.472971,0.969124,0.198648
18.640,569500,-0.191536,9.188946,7.742848,0.103521,0.669221,0.293508
18.660,569520,0.000000,8.202535,7.192182,-0.019585,0.464977,0.278587
18.680,569540,0.751779,7.005434,6.426037,-0.038237,0.329214,0.298704
18.700,569560,1.278504,6.052542,5.272032,-0.063551,0.236752,0.451254
18.720,569580,1.216254,4.797980,4.735731,-0.056090,0.113513,0.625521
18.740,569600,1.082179,3.485958,3.864242,-0.001199,-0.006395,0.780868
18.760,569620,0.890643,2.126051,3.227384,0.025447,-0.126436,0.888919
18.780,569640,-0.043096,0.794875,2.940080,0.033441,-0.269926,0.943810
18.800,569660,-0.799663,0.641646,3.145981,-0.005862,-0.316957,0.825368
18.820,569680,0.296881,2.221819,3.351882,-0.011458,-0.330280,0.635113
18.840,569700,0.282516,2.260126,3.734955,0.005063,-0.401959,0.567165
18.860,569720,2.111686,4.328717,7.005434,0.050628,-0.402492,0.365187
18.880,569740,8.346188,10.429143,7.781156,0.057956,-0.552510,0.610066
18.900,569760,3.773262,9.074024,7.532158,-0.118043,-0.666689,1.035074
18.920,569780,-1.259350,3.169923,6.813898,-2.225228,-1.293009,0.766479
18.940,569800,3.217807,7.354988,12.507310,-1.555208,-1.171769,0.197182
18.960,569820,6.833052,12.885593,12.986150,-0.921560,-0.741832,-0.095260
18.980,569840,7.996634,15.318103,12.473791,-0.862939,-0.263531,0.057156
19.000,569860,6.646304,13.881581,12.775460,-0.103387,0.573028,-0.111781
19.020,569880,5.607220,12.114660,11.592725,0.905439,1.158446,-0.390501
19.040,569900,4.558560,10.817003,10.280702,0.857476,1.035873,-0.333611
19.060,569920,2.959233,9.586384,9.907207,0.375312,0.792859,-0.233155
19.080,569940,2.126051,9.155427,8.863335,0.120441,0.606069,-0.287247
19.100,569960,1.532289,7.608773,7.268796,0.163741,0.419945,-0.263931
19.120,569980,0.057461,5.951985,5.224148,0.185858,0.183992,-0.073410
19.140,570000,-0.861913,4.850653,4.170700,0.170802,0.087799,0.030243
19.160,570020,-1.249773,3.964798,3.155558,0.174799,0.034374,0.078473
19.180,570040,-1.637634,3.371036,2.628834,0.160144,-0.004530,0.057289
19.200,570060,-1.977611,3.122039,2.226608,0.106585,0.005995,0.023982
19.220,570080,-1.546654,2.853889,2.379837,0.093395,0.073677,-0.063685
19.240,570100,-1.455675,2.260126,1.790863,0.243147,-0.291377,-0.162009
19.260,570120,-1.024718,2.126051,1.584962,0.219165,-0.442727,-0.170003
19.280,570140,-1.316811,2.791639,2.212242,0.140026,-0.557306,-0.176531
19.300,570160,4.505888,8.145074,7.034164,-0.142557,-0.232355,-0.309096
19.320,570180,9.773131,13.412318,6.239290,-0.445259,-0.337475,0.360923
19.340,570200,4.094085,11.827356,5.592855,-0.325084,-0.773407,0.552243
19.360,570220,3.983952,10.515334,5.497087,-0.348000,-1.293142,0.167738
19.380,570240,4.189853,9.414001,4.223372,-2.700064,-3.790296,0.375845
19.400,570260,9.313444,14.915876,10.735600,-2.571763,-2.964528,0.264997
19.420,570280,7.211336,17.041927,15.064317,-1.560671,-1.714419,0.172002
19.440,570300,6.416461,14.264654,12.579136,-0.516005,-0.596077,-0.367052
19.460,570320,5.032612,11.463438,9.883265,0.270726,0.185591,-0.727576
19.480,570340,3.830723,9.548077,7.905654,0.652567,0.328149,-0.742897
19.500,570360,3.557784,7.637504,6.550536,0.365453,-0.093262,-0.564368
19.520,570380,4.151546,6.861782,5.875371,-0.205043,-0.628319,-0.211704
19.540,570400,3.667917,5.731719,5.257667,-0.285515,-0.913433,0.138427
19.560,570420,3.552995,4.481946,4.568137,-0.203178,-1.044000,0.369051
19.580,570440,3.390190,3.457227,3.687071,-0.143224,-1.132865,0.601273
19.600,570460,2.221819,1.843535,2.968810,-0.044233,-1.196417,0.784998
19.620,570480,0.574608,0.306458,2.351106,0.040636,-1.230657,0.816041
19.640,570500,-0.158017,0.090980,2.231396,0.091530,-1.223196,0.754622
19.660,570520,0.057461,0.972046,2.413355,0.135496,-1.130734,0.650835
19.680,570540,1.120486,1.781286,2.456451,0.284449,-1.046798,0.543317
19.700,570560,1.790863,2.427721,4.161122,0.228758,-0.964727,0.435666
19.720,570580,8.552089,8.082825,7.297527,0.299904,-0.877328,0.263798
19.740,570600,13.718776,12.895170,7.340622,0.828565,-1.070779,0.962196
19.760,570620,5.573701,6.684611,7.699753,0.763681,-1.209074,1.433035
19.780,570640,3.825934,5.396531,8.815451,0.461779,-1.028145,0.659495
19.800,570660,6.789956,7.977480,10.007763,0.614862,-1.049196,-0.175199
19.820,570680,12.440272,12.430696,9.394848,0.881325,-1.077841,-0.319355
19.840,570700,16.132132,14.700398,6.512228,0.420744,-1.109017,0.379709
19.860,570720,12.756307,11.640609,6.703765,0.132032,-0.900110,0.779270
19.880,570740,10.649409,10.429143,7.206547,-0.096726,-0.527063,0.737835
19.900,570760,10.170568,9.275137,6.473921,-0.396096,-0.135096,0.505613
19.920,570780,9.303867,7.632715,3.892972,-1.045466,0.550511,0.134031
19.940,570800,6.469133,5.597643,7.163452,-1.170303,0.623389,-0.120974
19.960,570820,6.019023,5.133168,4.386178,-0.229957,-0.137361,-0.219432
19.980,570840,5.367800,4.797980,2.657564,-0.037172,-0.334677,-0.212904
20.000,570860,3.347094,3.117251,2.504335,0.048096,-0.346268,-0.288979
20.020,570880,1.747767,2.303222,3.102885,-0.061819,-0.311894,-0.419945
20.040,570900,1.268927,1.886631,2.753332,-0.033574,-0.414749,-0.483763
20.060,570920,0.047884,0.679953,2.719813,-0.137894,-0.482297,-0.564368
20.080,570940,-1.877054,-0.057461,3.131616,-0.142424,-0.298704,-0.747694
20.100,570960,-1.331176,0.608127,2.700660,-0.224495,-0.006395,-1.006828
20.120,570980,-0.320823,1.398214,1.920150,-0.384372,0.247943,-1.269694
20.140,571000,-0.794875,1.728614,1.953669,-0.565433,0.368784,-1.392400
20.160,571020,4.448427,5.846641,3.122039,-0.798055,0.847884,-1.719882
20.180,571040,13.172897,13.690045,5.339070,-0.424208,1.045466,-1.641276
20.200,571060,10.898406,13.115437,3.026271,-0.055158,0.791527,-0.671086
20.220,571080,5.453991,10.146626,4.108450,-0.059288,0.716518,-0.392766
20.240,571100,6.789956,12.306197,5.516241,0.149619,0.587283,-0.752357
20.260,571120,11.659762,17.070658,6.588843,0.337342,0.477634,-0.941545
20.280,571140,9.677363,16.663643,6.742072,0.226760,-0.104187,-0.482697
20.300,571160,4.716578,12.478580,6.876147,-0.173334,0.388769,-0.432735
20.320,571180,3.011906,9.888053,7.268796,-0.783400,0.645106,-0.850415
20.340,571200,3.591303,10.505757,7.398083,-1.770244,0.292975,-1.175366
20.360,571220,4.884171,10.352529,5.679047,-2.022850,-0.017187,-1.333778
20.380,571240,3.591303,9.255983,5.760449,-1.151518,0.308164,-1.292343
20.400,571260,2.590526,6.938396,4.764462,-0.655897,0.479899,-1.196816
20.420,571280,3.179500,5.702989,3.543418,-0.632049,0.385438,-1.017354
20.440,571300,2.968810,4.443638,2.791639,-0.475103,0.357060,-0.616194
20.460,571320,1.838747,3.514688,2.978387,-0.174533,0.417547,-0.260334
20.480,571340,-0.799663,2.729390,1.666364,0.286181,0.653766,0.055824
20.500,571360,-1.843535,1.316811,3.720589,0.029711,0.516671,0.102188
20.520,571380,-1.154005,1.618480,3.687071,-0.188122,0.372381,0.003597
20.540,571400,-0.411803,1.618480,4.472369,-0.357992,0.194651,-0.044233
20.560,571420,-0.110133,2.523489,4.783615,-0.415815,-0.034107,0.110982
20.580,571440,0.928950,6.933608,8.039729,-0.823769,-0.083136,-0.009459
20.600,571460,7.661446,11.238382,9.619903,-1.107018,-0.157479,-0.545715
20.620,571480,4.831499,7.651869,8.825027,-1.052926,-0.249142,-0.357859
20.640,571500,0.962469,6.751649,10.366894,-0.978717,-0.539054,-0.038371
20.660,571520,3.495534,8.877700,12.756307,-0.898245,-1.080106,-0.144956
20.680,571540,5.042189,12.205640,14.882358,-0.959265,-1.249043,-0.688539
20.700,571560,6.646304,13.699622,13.575124,-0.930221,-0.822703,-0.719049
20.720,571580,6.191406,13.129802,12.397177,-0.764348,-0.218899,-0.290444
20.740,571600,3.682282,12.085930,13.091495,-0.533325,-0.029444,-0.132432
20.760,571620,3.208230,11.583148,11.875240,-0.359858,0.227559,-0.148420
20.780,571640,4.156334,10.438720,11.003751,-0.029178,0.476035,-0.150951
20.800,571660,4.553771,9.054871,9.662998,0.198248,0.377044,-0.053026
20.820,571680,3.758897,6.804321,8.068460,0.375979,0.455917,0.213836
20.840,571700,1.953669,4.390966,6.579266,0.330946,0.680012,0.287779
20.860,571720,1.154005,3.107674,4.951209,0.273124,0.978050,0.251141
20.880,571740,0.742203,2.863465,4.180276,0.452320,0.690404,0.327216
20.900,571760,0.469264,2.164358,3.557784,0.400493,0.098191,0.269127
20.920,571780,0.210690,2.135628,3.217807,0.350398,-0.473770,-0.025980
20.940,571800,0.660800,2.901772,3.016694,0.369583,-0.707058,-0.282583
20.960,571820,2.164358,4.434062,2.576161,0.590214,-0.877194,-0.324551
20.980,571840,2.566584,3.624821,0.067038,0.572361,0.206375,-0.171202
21.000,571860,1.838747,5.544971,2.011129,0.519735,0.714786,0.378110
21.020,571880,-0.071826,2.097321,2.810793,0.957266,0.275789,0.610199
21.040,571900,3.342306,7.177817,6.047753,0.820971,-0.313493,0.446058
21.060,571920,9.691729,14.781801,7.115568,0.685475,-0.601406,0.359458
21.080,571940,7.522582,12.780249,6.440403,0.914100,-0.566233,0.806449
21.100,571960,1.723825,7.891289,6.612785,1.098225,-0.560504,0.850815
21.120,571980,2.173935,9.380483,7.072472,0.958599,-0.347334,0.377444
21.140,572000,5.209783,15.361198,8.700529,0.678813,-0.166939,-0.013590
21.160,572020,6.311116,18.310854,9.375694,0.727176,0.140559,-0.312028
21.180,572040,3.122039,13.484144,7.235278,0.664824,0.224495,-0.547980
21.200,572060,0.608127,9.979033,6.698977,0.389568,0.576492,-0.817240
21.220,572080,0.943315,8.628703,5.841852,0.036239,0.964594,-0.904107
21.240,572100,2.394202,7.742848,4.994305,-0.220364,1.077041,-0.785798
21.260,572120,4.170700,7.264008,4.204218,-0.266329,0.937548,-0.564101
21.280,572140,5.085284,6.742072,4.223372,-0.211838,0.598475,-0.281651
21.300,572160,3.950433,6.181829,4.481946,-0.214502,0.271392,0.005596
21.320,572180,2.422932,5.339070,4.070143,-0.199047,0.060620,0.235819
21.340,572200,1.541866,4.132392,3.193865,-0.101922,-0.092063,0.384239
21.360,572220,0.464475,3.299210,2.499547,0.001199,-0.272858,0.464311
21.380,572240,0.081403,4.070143,2.791639,0.105253,-0.420478,0.376378
21.400,572260,1.292869,4.874595,3.299210,0.295240,-0.499484,0.195983
21.420,572280,2.063802,4.683059,3.265691,0.407155,-0.604070,0.100323
21.440,572300,1.771709,3.418920,3.222595,0.440596,-0.797922,0.194118
21.460,572320,1.278504,4.960786,5.118803,0.342404,-1.020152,0.135496
21.480,572340,5.913678,11.247959,6.593631,0.329214,-0.983247,-0.239683
21.500,572360,6.732495,11.817780,7.082048,0.164940,-0.930221,0.004530
21.520,572380,1.915361,9.045294,7.771579,-0.203711,-1.035207,0.153349
21.540,572400,-0.272939,9.184157,8.542512,-0.499750,-0.928222,-0.382640
21.560,572420,3.169923,14.015656,10.347740,-0.582487,-0.567565,-1.172435
21.580,572440,9.059659,20.015526,10.500969,-0.739966,-0.321354,-1.532825
21.600,572460,9.045294,17.080235,9.380483,-0.830830,-0.561436,-0.820305
21.620,572480,5.568913,12.148179,8.662222,-0.803651,-0.661626,-0.377977
21.640,572500,3.940856,10.687716,7.920019,-0.821637,-0.729308,-0.403824
21.660,572520,2.844312,8.652645,6.210559,-0.607801,-0.779669,-0.592746
21.680,572540,2.355895,6.239290,4.515464,-0.248077,-0.777138,-0.658828
21.700,572560,2.025495,4.984728,3.926491,0.024248,-0.842554,-0.586351
21.720,572580,1.757344,4.903325,3.548207,0.144556,-0.892116,-0.525464
21.740,572600,1.139640,4.443638,3.126827,0.211172,-0.852813,-0.482830
21.760,572620,0.622492,3.773262,2.815581,0.278587,-0.749825,-0.448057
21.780,572640,0.158017,2.810793,2.489970,0.298438,-0.618193,-0.398228
21.800,572660,0.038307,2.475605,2.217031,0.303501,-0.543450,-0.336142
21.820,572680,0.292093,3.323152,1.982399,0.269926,-0.473104,-0.282583
21.840,572700,0.866701,4.673482,1.982399,0.297505,-0.404224,-0.249009
21.860,572720,0.924162,5.085284,1.939303,0.389035,-0.318423,-0.235286
21.880,572740,0.272939,4.367024,1.972822,0.382107,-0.190920,-0.139493
21.900,572760,-0.574608,5.951985,3.270479,0.294574,-0.155614,-0.028112
21.920,572780,4.707001,15.399506,4.237737,0.500283,-0.457516,-0.278720
21.940,572800,7.038953,16.845604,3.150769,0.630450,-0.043300,0.029311
21.960,572820,1.412579,12.148179,2.786851,0.363988,0.079672,0.431003
21.980,572840,-1.043872,11.429919,3.280056,0.343737,0.263132,0.290178
22.000,572860,0.746991,13.929465,4.898537,0.451121,0.583420,-0.338407
22.020,572880,5.161899,18.272547,4.903325,0.297239,0.754089,-0.718649
22.040,572900,3.682282,15.073894,5.300763,-0.062619,0.859208,-0.492156
22.060,572920,-0.086191,10.534488,5.540183,-0.426873,0.912101,-0.425807
22.080,572940,-0.335188,9.548077,5.185841,-0.679479,1.141392,-0.625787
22.100,572960,1.766921,9.318233,4.003105,-0.692003,1.172968,-0.696933
22.120,572980,2.758120,7.896077,2.901772,-0.632715,1.123139,-0.417946
22.140,573000,2.691083,6.449979,2.375048,-0.554375,0.883456,0.017986
22.160,573020,2.183512,5.841852,2.317587,-0.499084,0.663891,0.319355
22.180,573040,1.944092,5.631162,2.614468,-0.423409,0.559438,0.426606
22.200,573060,1.695095,5.487510,2.892196,-0.422610,0.517737,0.453253
22.220,573080,0.746991,5.032612,3.543418,-0.518536,0.512674,0.470839
22.240,573100,0.411803,4.855441,3.720589,-0.573028,0.523865,0.487360
22.260,573120,0.866701,5.789180,3.854665,-0.608467,0.497752,0.503481
22.280,573140,1.900996,7.709330,3.840300,-0.572361,0.543184,0.500816
22.300,573160,2.547431,8.006210,4.031836,-0.477900,0.670819,0.522000
22.320,573180,2.360683,6.890512,4.213795,-0.395297,0.604337,0.562769
22.340,573200,2.269703,7.848193,5.200206,-0.318556,0.298838,0.491490
22.360,573220,4.793192,11.271901,5.635951,-0.128168,0.163075,0.320554
22.380,573240,3.653552,10.419566,6.593631,-0.318289,0.380109,0.491757
22.400,573260,2.264915,11.420342,8.465898,-0.609400,0.540786,0.552643
22.420,573280,1.211466,10.189722,10.007763,-0.849349,0.814309,0.377711
22.440,573300,0.703895,9.543288,10.500969,-0.936349,0.650568,0.164407
22.460,573320,2.887407,13.115437,11.195287,-1.104753,0.757819,0.011058
22.480,573340,4.371812,14.958972,10.486604,-1.183626,0.899178,0.008394
22.500,573360,2.810793,11.420342,9.054871,-0.977784,0.870133,0.228891
22.520,573380,1.302446,8.657434,8.341399,-0.854279,0.848550,0.416214
22.540,573400,1.139640,7.134721,7.077260,-0.782334,0.919562,0.552377
22.560,573420,1.537078,6.234501,5.702989,-0.642974,0.935417,0.666023
22.580,573440,1.944092,5.679047,4.821922,-0.401692,0.905040,0.790061
22.600,573460,2.240973,5.238513,4.209007,-0.212237,0.876395,0.955934
22.620,573480,1.838747,4.745308,4.084508,-0.110315,0.903041,1.177764
22.640,573500,1.120486,4.548983,4.027047,-0.019452,0.961530,1.320721
22.660,573520,0.186748,4.103662,3.916914,0.104587,1.089565,1.301669
22.680,573540,-0.541090,4.165911,4.036624,0.187989,1.295141,1.283417
22.700,573560,-0.507571,4.654328,4.481946,0.329747,1.509643,1.295274
22.720,573580,0.675165,5.353435,4.850653,0.508544,1.693369,1.195217
22.740,573600,2.197877,5.540183,4.903325,0.636712,1.764381,1.134864
22.760,573620,1.939303,4.970363,4.448427,0.650168,1.692570,1.245979
22.780,573640,0.526724,3.931279,4.558560,0.690404,1.628086,1.354162
22.800,573660,-0.047884,4.223372,6.928820,0.696933,1.625155,1.292343
22.820,573680,4.683059,7.896077,9.026140,0.551711,1.625554,1.043334
22.840,573700,6.066907,11.051635,7.460332,0.209573,1.245446,1.021617
22.860,573720,2.834735,11.018116,6.828263,0.281651,0.885455,0.882257
22.880,573740,1.704672,11.774684,7.987057,0.541851,0.723179,0.414616
22.900,573760,3.145981,15.045163,10.630256,0.558505,0.744896,-0.100590
22.920,573780,6.100426,18.042704,12.698846,0.174933,0.833228,-0.295640
22.940,573800,4.673482,14.480132,10.544065,-0.023449,0.763415,-0.117776
22.960,573820,3.634398,11.180922,9.983821,-0.000266,0.624455,-0.049429
22.980,573840,3.538630,10.658986,9.275137,-0.162542,0.475902,0.016121
23.000,573860,2.657564,9.624691,8.202535,-0.278720,0.414482,0.054492
23.020,573880,1.781286,8.288726,7.163452,-0.277920,0.374247,0.038637
23.040,573900,1.072602,7.283162,6.373365,-0.267662,0.311628,-0.020251
23.060,573920,0.263362,5.951985,5.559336,-0.243946,0.255138,-0.088998
23.080,573940,-0.009577,4.319140,4.376601,-0.210239,0.223429,-0.108051
23.100,573960,0.014365,3.002329,3.438074,-0.170136,0.065017,-0.081138
23.120,573980,0.258574,2.015918,2.944868,-0.096593,-0.146954,-0.045965
23.140,574000,-0.081403,0.981623,2.533065,-0.059821,-0.374646,0.036639
23.160,574020,-0.114922,0.790087,2.274492,-0.122573,-0.516138,0.101789
23.180,574040,0.402226,1.833959,2.624045,-0.169070,-0.653233,0.073011
23.200,574060,0.675165,1.929727,2.877831,-0.027845,-0.799121,-0.021184
23.220,574080,0.215478,2.121263,4.568137,-0.029711,-1.000300,-0.044766
23.240,574100,2.461239,5.023035,8.379706,-0.174933,-1.158312,-0.249942
23.260,574120,7.694964,10.137050,11.496957,-0.477501,-1.387337,-0.456184
23.280,574140,5.463568,10.366894,10.563218,-0.833495,-1.829665,-0.472704
23.300,574160,1.120486,6.440403,10.793061,-0.710123,-2.229891,-1.048796
23.320,574180,0.689530,6.339846,12.334928,-0.802585,-2.523133,-1.754655
23.340,574200,5.233725,14.872781,15.275007,-1.307665,-2.564301,-2.244813
23.360,574220,6.809110,18.081011,12.502522,-1.297539,-2.033908,-2.053227
23.380,574240,3.969586,13.508086,10.189722,-0.743963,-2.093196,-1.885222
23.400,574260,1.513135,10.678140,10.175357,-0.510142,-2.115046,-2.032576
23.420,574280,0.536301,9.308656,8.810662,-0.380908,-1.803285,-2.074810
23.440,574300,0.905008,9.208099,7.824251,-0.267795,-1.371482,-1.932786
23.460,574320,1.546654,9.155427,6.540959,-0.034107,-1.021750,-1.671919
23.480,574340,1.278504,7.000646,4.984728,0.288446,-0.805916,-1.389735
23.500,574360,0.373495,4.525041,3.754108,0.473504,-0.720914,-1.145522
23.520,574380,-0.186748,3.423708,3.236961,0.494954,-0.668155,-0.982047
23.540,574400,-0.234632,3.088520,2.911349,0.490158,-0.633381,-0.825767
23.560,574420,-0.383072,3.208230,2.992752,0.463378,-0.595943,-0.679346
23.580,574440,-0.363919,2.959233,2.614468,0.437265,-0.567165,-0.540386
23.600,574460,-0.311246,2.796427,2.092532,0.406222,-0.543317,-0.409153
23.620,574480,-0.301669,2.628834,1.776498,0.417147,-0.573294,-0.233688
23.640,574500,-1.283292,3.035848,2.561796,0.356793,-0.625387,-0.035440
23.660,574520,-0.526724,7.340622,5.252879,0.225294,-0.524531,-0.113779
23.680,574540,3.303998,13.565547,6.742072,0.180662,-0.274323,-0.291110
23.700,574560,3.763685,13.867216,7.359776,0.014655,-0.106052,-0.012257
23.720,574580,-0.349553,9.868899,7.580042,-0.250874,-0.144822,0.186790
23.740,574600,-0.603339,11.726800,8.068460,-0.320155,-0.117776,0.004397
23.760,574620,3.423708,18.229452,9.141062,-0.289778,0.221031,-0.395297
23.780,574640,4.644751,17.061081,8.207323,-0.278853,0.316424,-0.370783
23.800,574660,0.943315,11.659762,7.513005,-0.298571,0.102188,-0.159211
23.820,574680,-1.527501,9.208099,7.939173,-0.408887,0.203044,-0.290844
23.840,574700,-0.344765,9.088389,7.316680,-0.474303,0.393698,-0.493355
23.860,574720,1.316811,9.045294,6.320693,-0.475902,0.422610,-0.386371
23.880,574740,1.862689,8.350976,5.463568,-0.442061,0.331879,-0.182127
23.900,574760,1.881842,7.062895,4.587290,-0.314426,0.218766,-0.027046
23.920,574780,1.498770,5.650316,4.232949,-0.177064,0.036505,0.053159
23.940,574800,1.249773,4.601655,4.041412,-0.012524,-0.126570,0.110848
23.960,574820,0.780510,3.055001,3.495534,0.048763,-0.236086,0.250342
23.980,574840,-0.014365,1.517924,2.892196,0.071545,-0.312827,0.434334
24.000,574860,-0.560243,0.972046,2.901772,0.086201,-0.355061,0.486028
24.020,574880,0.191536,1.862689,3.538630,0.100323,-0.338541,0.421410
24.040,574900,-0.153229,1.091756,3.993528,-0.095127,-0.173467,0.567698
24.060,574920,-0.708684,2.164358,5.104438,-0.462179,-0.088998,0.806715
24.080,574940,3.902549,10.007763,7.158663,-0.613397,-0.061553,0.753023
24.100,574960,7.168240,13.374011,7.747637,-0.780602,0.027845,1.144323
24.120,574980,2.370260,9.557653,9.160215,-1.055724,0.008260,1.534557
24.140,575000,0.512359,7.556100,11.578360,-1.097959,-0.102055,1.280619
24.160,575020,2.834735,10.778696,13.594277,-1.030144,-0.142557,0.675882
24.180,575040,9.203311,17.329231,13.474567,-1.204144,-0.162809,0.235553
24.200,575060,8.920795,15.404294,11.185710,-1.202279,-0.203178,0.707591
24.220,575080,4.999093,11.372458,10.089166,-0.884522,-0.290044,1.002832
24.240,575100,3.102885,9.974244,9.797073,-0.810845,-0.169870,0.918496
24.260,575120,3.222595,8.623915,9.260772,-0.719715,0.027446,0.740366
24.280,575140,3.974375,7.900866,8.815451,-0.545715,0.130966,0.607135
24.300,575160,4.070143,6.387730,7.249643,-0.421544,0.138694,0.632449
24.320,575180,3.002329,4.410120,5.846641,-0.317890,-0.038770,0.697066
24.340,575200,2.001553,3.040636,5.147533,-0.106985,-0.078740,0.633248
24.360,575220,1.465251,2.288857,4.472369,0.047430,-0.148953,0.543051
24.380,575240,0.852336,1.881842,3.873818,0.167205,-0.192386,0.458848
24.400,575260,1.063026,2.111686,3.462016,0.247410,-0.154015,0.408887
24.420,575280,2.011129,2.121263,3.208230,0.283516,-0.037038,0.468708
24.440,575300,2.518700,2.442086,3.055001,0.225028,-0.011858,0.603804
24.460,575320,2.269703,2.236184,2.480393,0.246078,-0.128435,0.749959
24.480,575340,1.130063,2.106898,2.221819,0.349599,-0.327216,0.821504
24.500,575360,0.105345,3.241749,4.994305,0.491490,-0.313626,0.674816
24.520,575380,6.081272,8.599973,8.489840,0.607268,-0.192919,0.427806
24.540,575400,9.050082,11.477803,9.763555,0.247810,0.049029,0.673351
24.560,575420,3.600879,9.160215,10.026917,-0.100456,0.069014,0.709989
24.580,575440,1.192312,8.034941,11.128249,0.036505,0.264064,0.194384
24.600,575460,7.532158,12.832921,12.622231,0.320688,0.557306,-0.433135
24.620,575480,12.382812,15.840038,12.095507,-0.119109,0.728508,-0.163608
24.640,575500,6.842628,12.196063,11.228806,-0.221830,0.669087,0.143623
24.660,575520,4.041412,10.189722,11.410766,-0.010925,0.628052,-0.179462
24.680,575540,4.343082,9.006987,9.945514,-0.075942,0.653899,-0.626453
24.700,575560,4.347870,7.728483,7.886500,-0.210106,0.576358,-0.852147
24.720,575580,4.228160,6.823475,6.483498,-0.118842,0.492289,-0.800320
24.740,575600,4.414908,6.339846,5.228937,-0.035573,0.284982,-0.531459
24.760,575620,3.653552,5.267244,4.414908,0.060087,0.085534,-0.237152
24.780,575640,2.231396,3.485958,3.821146,0.141758,-0.017453,-0.041701
24.800,575660,1.010353,2.164358,3.256114,0.167338,-0.057822,-0.006395
24.820,575680,0.521936,1.695095,2.533065,0.191853,-0.178530,-0.015988
24.840,575700,-0.368707,1.565808,2.892196,0.236352,-0.293375,-0.014655
24.860,575720,-0.186748,2.183512,3.873818,0.219698,-0.288579,-0.134963
24.880,575740,0.833182,2.509123,4.094085,0.112314,-0.236619,-0.219965
24.900,575760,1.096544,2.451663,4.692636,0.084069,-0.294974,-0.170003
24.920,575780,6.038177,7.704541,8.116343,0.254605,-0.376378,-0.348799
24.940,575800,10.362105,11.487380,11.166556,0.017320,-0.325217,-0.063685
24.960,575820,5.032612,6.129156,9.418790,-0.462845,-0.278853,0.234487
24.980,575840,2.729390,5.295974,10.022128,-0.278853,-0.398761,-0.020917
25.000,575860,7.584831,9.227253,11.391612,-0.033175,-0.533858,-0.571429
25.020,575880,10.979809,13.172897,11.587936,-0.434334,-0.425541,-0.508810
25.040,575900,8.710106,12.263102,10.759542,-0.487227,-0.223962,-0.055557
25.060,575920,5.841852,9.433155,10.807426,-0.322020,0.087666,-0.047697
25.080,575940,4.400543,7.311892,10.012551,-0.320155,0.272991,-0.316824
25.100,575960,4.165911,6.962338,8.925584,-0.331879,0.209173,-0.564634
25.120,575980,3.993528,6.564901,7.800309,-0.201446,0.131100,-0.690005
25.140,576000,3.572149,5.583278,6.684611,0.027312,0.002398,-0.701862
25.160,576020,2.983175,4.970363,6.038177,0.179862,-0.032508,-0.628585
25.180,576040,2.480393,4.132392,5.473145,0.224495,-0.016521,-0.473770
25.200,576060,1.345541,3.466804,4.740520,0.193985,-0.018119,-0.359858
25.220,576080,1.312023,3.663129,4.395754,0.213303,-0.071145,-0.320821
25.240,576100,1.723825,3.485958,3.840300,0.301902,-0.095527,-0.231156
25.260,576120,1.556231,2.710236,3.567361,0.376112,-0.145222,-0.058622
25.280,576140,0.828394,2.614468,3.773262,0.324951,-0.179729,0.086600
25.300,576160,0.617704,2.978387,3.485958,0.246478,-0.159478,0.142158
25.320,576180,0.646434,3.505111,3.730166,0.250741,-0.201979,0.183193
25.340,576200,5.200206,9.083601,6.239290,0.388636,-0.158545,0.128968
25.360,576220,9.270349,15.495274,7.402872,0.152816,-0.099923,0.457383
25.380,576240,2.930503,9.576807,6.560112,0.162809,-0.064484,0.605270
25.400,576260,-0.047884,7.891289,7.230489,0.423409,-0.049695,0.240083
25.420,576280,3.720589,11.540052,8.959103,0.499217,0.132299,-0.241815
25.440,576300,8.331821,15.749059,9.734824,0.049562,0.374380,-0.219698
25.460,576320,7.230489,14.930242,9.414001,-0.136296,0.436998,0.086467
25.480,576340,4.285621,12.540829,8.614338,-0.091263,0.329614,-0.095127
25.500,576360,3.064578,10.606314,7.584831,-0.010525,0.292842,-0.447257
25.520,576380,2.873042,9.179369,7.091625,-0.093662,0.281917,-0.535590
25.540,576400,3.222595,8.796297,6.703765,-0.172401,0.417680,-0.457516
25.560,576420,3.380613,7.776367,5.923255,-0.231689,0.313760,-0.333611
25.580,576440,2.796427,6.464345,5.430049,-0.189455,0.203044,-0.195583
25.600,576460,1.661576,4.769250,4.821922,-0.144822,0.116178,-0.091530
25.620,576480,0.497994,3.160346,3.849876,-0.155081,-0.010392,-0.023182
25.640,576500,-0.746991,1.527501,2.767697,-0.110982,-0.129234,-0.016920
25.660,576520,-1.795651,0.641646,2.734178,-0.019452,-0.158545,-0.112314
25.680,576540,-0.876278,1.651999,3.351882,-0.058222,-0.173067,-0.187323
25.700,576560,-0.474052,1.618480,3.404555,-0.180928,-0.169603,0.019718
25.720,576580,-1.019930,0.871489,3.854665,-0.273923,-0.161077,0.263798
25.740,576600,-0.196325,3.399766,5.827487,-0.337475,-0.371449,0.272724
25.760,576620,7.244854,12.287044,9.246407,-0.079139,-0.699064,-0.063551
25.780,576640,10.271125,14.628572,9.610326,-0.393165,-0.301902,0.042368
25.800,576660,4.046201,7.129933,7.450756,-0.353462,-0.393165,0.530660
25.820,576680,1.810017,5.190629,9.428367,-0.015055,-0.827899,0.434467
25.840,576700,6.248867,10.228029,12.100295,-0.210505,-1.051194,-0.111781
25.860,576720,8.192958,13.977349,10.692505,-0.747960,-0.595277,-0.261533
25.880,576740,7.958326,13.982138,9.016563,-0.553576,-0.104853,-0.066482
25.900,576760,7.805098,12.607866,9.509769,-0.300303,-0.283250,0.066882
25.920,576780,5.774815,9.878476,8.896853,-0.311228,-0.200380,0.045432
25.940,576800,4.893748,8.777143,8.820239,-0.284982,-0.053159,-0.040769
25.960,576820,4.347870,8.710106,8.638280,-0.294841,0.131632,-0.250741
25.980,576840,3.768473,7.642292,7.388506,-0.311495,0.203178,-0.427273
26.000,576860,2.834735,6.359000,6.157887,-0.256870,0.196516,-0.440196
26.020,576880,1.924938,5.492299,5.219360,-0.110982,0.198381,-0.423409
26.040,576900,2.154782,4.606444,3.969586,0.054358,0.017720,-0.366919
26.060,576920,2.298434,3.260903,3.701436,0.232888,-0.045698,-0.153882
26.080,576940,0.995988,1.599327,2.619257,0.420211,-0.160011,0.096193
26.100,576960,0.775721,1.173159,2.557007,0.304567,-0.235286,0.228225
26.120,576980,1.321599,1.872266,4.529830,0.077541,-0.153083,0.278453
26.140,577000,1.259350,2.499547,4.209007,-0.108850,-0.115112,0.373847
26.160,577020,-0.138864,2.451663,4.410120,-0.220897,-0.183459,0.388103
26.180,577040,2.183512,6.847417,5.161899,-0.170802,-0.141092,0.177464
26.200,577060,8.039729,12.536040,8.078036,0.088865,0.182926,-0.032908
26.220,577080,6.641516,10.769119,6.933608,-0.200380,0.304700,0.348933
26.240,577100,1.278504,6.852205,6.478710,-0.081937,0.325750,0.429804
26.260,577120,2.561796,9.528923,7.666234,0.292576,0.458848,0.248077
26.280,577140,7.431602,13.857639,9.126697,0.291643,0.717317,0.239816
26.300,577160,8.078036,14.992491,9.667787,-0.246611,0.858009,0.253939
26.320,577180,5.918467,13.239936,8.815451,-0.381574,0.762216,0.159345
26.340,577200,3.179500,11.420342,8.255207,-0.192119,0.556507,-0.189322
26.360,577220,1.441309,9.255983,8.379706,-0.106319,0.631116,-0.601273
26.380,577240,2.044648,7.694964,7.594408,-0.176132,0.856144,-0.627652
26.400,577260,2.997540,7.522582,6.564901,-0.318423,0.928755,-0.361057
26.420,577280,2.633622,6.818686,6.004658,-0.365187,0.924758,-0.150152
26.440,577300,1.551443,5.583278,5.415684,-0.375446,0.794458,-0.103920
26.460,577320,1.015141,4.405331,4.884171,-0.342005,0.639510,-0.123639
26.480,577340,1.163582,3.873818,3.955221,-0.253539,0.512407,-0.054625
26.500,577360,0.363919,3.117251,3.270479,-0.185191,0.390900,0.064484
26.520,577380,-1.192312,1.838747,2.973598,-0.039170,0.350931,0.047297
26.540,577400,-0.172383,1.781286,3.280056,-0.004930,0.248609,-0.136562
26.560,577420,-0.909797,0.775721,3.562572,0.040103,0.224628,-0.268194
26.580,577440,1.177947,3.821146,6.105214,-0.029178,0.307098,-0.363322
26.600,577460,8.111555,11.980585,8.681376,-0.142824,0.201979,-0.358126
26.620,577480,5.990293,8.748413,8.097190,-0.157080,0.108850,0.070479
26.640,577500,0.986411,6.397307,9.509769,-0.443527,0.015188,0.255804
26.660,577520,0.397437,6.971915,11.238382,-0.406355,-0.126037,0.058755
26.680,577540,2.695871,9.246407,11.856087,-0.264064,0.024381,-0.267528
26.700,577560,6.584054,13.594277,12.794614,-0.425674,0.293908,-0.285781
26.720,577580,8.796297,14.863204,11.951855,-0.492822,0.397162,0.098591
26.740,577600,7.096414,11.482592,11.200075,-0.206375,0.230224,0.489492
26.760,577620,3.677494,7.852982,11.516110,-0.130300,0.220231,0.591547
26.780,577640,2.442086,6.330269,10.682928,-0.295640,0.348266,0.452054
26.800,577660,2.557007,5.817910,9.495404,-0.326150,0.413816,0.215701
26.820,577680,3.399766,5.774815,8.350976,-0.216234,0.423942,0.035440
26.840,577700,3.816358,5.147533,6.636727,-0.087400,0.363055,0.057289
26.860,577720,3.136404,4.266468,5.233725,0.048763,0.229957,0.160943
26.880,577740,1.604115,3.055001,4.151546,0.142158,0.136296,0.221164
26.900,577760,0.119710,1.824382,3.643975,0.225694,0.118443,0.235953
26.920,577780,-1.321599,0.660800,3.232172,0.251674,0.223695,0.212104
26.940,577800,-1.206678,1.575385,3.165135,0.119908,0.294841,0.055957
26.960,577820,-0.464475,2.528277,3.313575,0.090464,0.303368,-0.086201
26.980,577840,-0.272939,3.529053,4.678270,0.095260,0.341871,-0.156680
27.000,577860,2.935291,7.905654,8.288726,0.052760,0.289911,-0.167338
27.020,577880,6.914454,13.043611,9.145850,-0.358658,0.395297,-0.114712
27.040,577900,1.862689,9.485827,7.603985,-0.407421,0.328015,0.115112
27.060,577920,-3.490746,6.737284,9.892841,-0.119109,0.314426,-0.102455
27.080,577940,-0.900220,9.706094,12.224793,-0.342804,0.397429,-0.327749
27.100,577960,6.071695,15.203181,13.230358,-0.760084,0.413017,-0.234487
27.120,577980,6.957550,15.442601,11.832145,-0.762749,0.543051,0.172534
27.140,578000,3.007117,12.497733,10.505757,-0.330280,0.387969,0.350931
27.160,578020,0.636858,9.983821,9.849746,-0.035573,0.239550,0.069946
27.180,578040,0.617704,8.394072,8.959103,0.005196,0.161077,-0.190387
27.200,578060,1.920150,7.795521,8.537724,-0.121507,0.135496,-0.182793
27.220,578080,2.825158,7.158663,7.091625,-0.172534,0.237685,-0.009459
27.240,578100,2.059013,5.856217,5.770026,-0.196383,0.027179,0.203844
27.260,578120,0.948104,4.730943,5.109226,-0.166273,-0.098591,0.255671
27.280,578140,0.526724,3.557784,4.328717,-0.145489,-0.168937,0.245012
27.300,578160,0.646434,2.106898,3.040636,-0.109516,-0.351997,0.276588
27.320,578180,0.411803,0.258574,1.728614,0.022250,-0.579822,0.391700
27.340,578200,-1.048660,-0.464475,1.924938,0.030643,-0.715319,0.382507
27.360,578220,-1.814805,-0.062249,3.074155,-0.085668,-0.682011,0.182260
27.380,578240,-2.030283,0.325611,4.711789,-0.154015,-0.587816,-0.090997
27.400,578260,0.052672,3.916914,8.489840,-0.302835,-0.648436,-0.425807
27.420,578280,6.785168,9.485827,12.837709,-0.434201,-0.550778,-0.719315
27.440,578300,8.686164,12.196063,11.573571,-1.104753,-0.116178,-0.383706
27.460,578320,2.025495,6.502652,9.490616,-0.753822,-0.469907,0.114712
27.480,578340,-1.316811,3.610456,12.785037,-0.138960,-0.709723,-0.386637
27.500,578360,2.480393,7.690176,15.677233,-0.207041,-0.773940,-1.102489
27.520,578380,6.593631,13.464991,15.782578,-0.864005,-0.045832,-1.129001
27.540,578400,5.832275,12.722788,11.966220,-0.614196,0.246744,-0.740099
27.560,578420,3.189077,9.442732,12.627020,-0.097659,-0.191187,-0.642041
27.580,578440,1.072602,7.082048,12.871228,-0.031043,-0.068481,-0.822969
27.600,578460,1.000776,6.584054,11.372458,-0.043300,0.039969,-0.941812
27.620,578480,1.781286,7.105990,10.122684,0.054092,-0.023049,-0.978583
27.640,578500,2.145205,6.579266,8.379706,0.270726,-0.133364,-0.917963
27.660,578520,1.628057,5.008670,6.689400,0.511874,-0.289245,-0.806582
27.680,578540,0.842759,3.481169,5.564125,0.730907,-0.421677,-0.711721
27.700,578560,0.277727,2.312799,4.711789,0.893315,-0.431269,-0.646971
27.720,578580,0.148441,1.470040,4.118027,0.988976,-0.352663,-0.546381
27.740,578600,0.153229,1.254562,3.969586,0.969657,-0.285914,-0.431536
27.760,578620,0.225055,1.537078,3.648763,0.904907,-0.202645,-0.373314
27.780,578640,-0.296881,1.312023,3.241749,0.866669,-0.128035,-0.332545
27.800,578660,-0.363919,1.939303,3.016694,0.854279,-0.140026,-0.293508
27.820,578680,0.253785,4.999093,5.679047,0.858675,-0.067815,-0.264064
27.840,578700,4.630386,12.899959,8.106767,0.679879,-0.017986,-0.403557
27.860,578720,5.573701,13.005303,6.191406,0.379309,0.070479,-0.113513
27.880,578740,-0.009577,8.101978,5.822699,0.358792,-0.115911,0.323619
27.900,578760,-1.987187,10.208876,7.278373,0.326017,-0.230224,0.241681
27.920,578780,-0.095768,15.093047,9.418790,0.305632,0.283916,-0.139093
27.940,578800,2.738967,16.558298,9.203311,-0.092596,0.516537,-0.320421
27.960,578820,1.939303,14.867992,8.298303,-0.290711,0.158012,-0.126570
27.980,578840,0.014365,12.928689,7.536947,-0.261666,0.150685,-0.115112
28.000,578860,-1.082179,11.051635,7.230489,-0.393432,0.321221,-0.163208
28.020,578880,-1.335965,9.212888,7.010222,-0.615528,0.437665,-0.121507
28.040,578900,-0.335188,8.269572,6.555324,-0.711322,0.420478,-0.042501
28.060,578920,0.986411,7.450756,6.095637,-0.718782,0.294441,0.089265
28.080,578940,1.173159,6.038177,5.564125,-0.773407,0.115911,0.214502
28.100,578960,0.311246,4.458004,4.764462,-0.832429,-0.021450,0.318423
28.120,578980,-0.349553,3.457227,3.878607,-0.790195,-0.076741,0.353862
28.140,579000,-0.071826,2.327164,3.050213,-0.583819,-0.089265,0.358392
28.160,579020,-0.392649,1.149217,3.055001,-0.425674,-0.225161,0.375446
28.180,579040,-0.493206,0.804452,3.538630,-0.403291,-0.301236,0.306565
28.200,579060,-0.770933,0.627281,3.931279,-0.436466,-0.269260,0.268594
28.220,579080,-1.240196,1.575385,5.664681,-0.440063,-0.284449,0.273524
28.240,579100,1.757344,6.866570,9.361329,-0.246478,-0.251940,-0.006395
28.260,579120,7.278373,12.306197,11.099519,-0.353196,-0.002931,-0.223029
28.280,579140,4.434062,9.045294,9.739613,-0.697332,-0.001599,0.180395
28.300,579160,0.866701,5.841852,11.377247,-0.270459,-0.306432,0.231289
28.320,579180,2.590526,6.900089,12.785037,0.016254,-0.438730,-0.032642
28.340,579200,4.223372,10.520123,12.986150,-0.334144,-0.320688,-0.308430
28.360,579220,4.625597,12.449849,12.282255,-0.575825,-0.023982,-0.281651
28.380,579240,3.811569,11.032481,11.889606,-0.394897,-0.041435,-0.139360
28.400,579260,2.413355,9.260772,11.932701,-0.289112,0.029844,-0.226760
28.420,579280,1.288081,7.436390,10.678140,-0.278720,0.197315,-0.352930
28.440,579300,0.828394,6.526594,9.801862,-0.247144,0.179862,-0.367319
28.460,579320,1.077391,6.890512,9.294291,-0.215701,0.223828,-0.406089
28.480,579340,1.541866,6.402095,7.436390,-0.115645,0.345602,-0.391833
28.500,579360,1.541866,5.272032,5.937620,-0.021317,0.260734,-0.258868
28.520,579380,1.436521,4.295198,4.984728,0.138560,0.185858,-0.086467
28.540,579400,1.173159,2.954445,4.055778,0.257403,0.109383,0.107518
28.560,579420,0.541090,1.498770,3.303998,0.312294,0.036905,0.306032
28.580,579440,-0.545878,0.962469,3.380613,0.231956,-0.011591,0.455917
28.600,579460,-1.412579,1.446098,3.404555,0.100590,-0.076874,0.477368
28.620,579480,-1.719037,1.872266,3.236961,0.153882,-0.078074,0.425141
28.640,579500,-0.459687,5.147533,5.942409,0.168937,0.069147,0.242481
28.660,579520,4.951209,12.018892,8.619126,0.041968,0.156680,0.077807
28.680,579540,4.371812,11.156980,7.235278,-0.140292,0.245678,0.448190
28.700,579560,-2.264915,7.206547,8.791509,-0.133764,0.004130,0.653632
28.720,579580,-2.116474,9.524135,10.927136,0.070746,0.087533,0.282983
28.740,579600,1.968034,12.876017,11.228806,0.210505,0.442994,-0.062485
28.760,579620,5.401319,14.820108,11.669339,0.101123,0.621124,0.051294
28.780,579640,5.051765,13.867216,11.056423,0.132432,0.563302,0.409420
28.800,579660,1.877054,11.654974,10.050858,0.144689,0.386504,0.488159
28.820,579680,-0.402226,8.983045,9.964667,0.071812,0.400760,0.266063
28.840,579700,-0.837971,7.034164,10.055647,-0.137495,0.458049,0.085268
28.860,579720,0.301669,7.268796,9.045294,-0.272058,0.594877,-0.049962
28.880,579740,1.637634,7.216124,7.125144,-0.267795,0.565966,-0.068614
28.900,579760,1.206678,5.430049,6.047753,-0.189188,0.440196,0.029044
28.920,579780,0.737414,4.089296,4.692636,-0.164407,0.246478,0.112580
28.940,579800,0.905008,3.318364,3.495534,-0.116844,0.069280,0.136296
28.960,579820,1.259350,2.647987,2.288857,0.026779,-0.130833,0.160544
28.980,579840,0.833182,1.714248,2.044648,0.185991,-0.305632,0.236752
29.000,579860,0.512359,1.412579,2.451663,0.211172,-0.441528,0.299237
29.020,579880,0.512359,1.240196,2.887407,0.179596,-0.589948,0.388902
29.040,579900,0.119710,1.651999,4.635174,0.164008,-0.714919,0.472038
29.060,579920,2.820370,6.799533,9.423578,0.027312,-0.738101,0.231689
29.080,579940,7.733272,11.755530,11.396400,-0.363322,-0.611265,0.124971
29.100,579960,3.385401,7.963115,9.045294,-0.502815,-0.549446,0.562103
29.120,579980,-1.144428,4.865018,10.524911,-0.288179,-0.546115,0.493755
29.140,580000,0.632069,5.951985,12.291832,-0.229291,-0.559971,-0.064217
29.160,580020,4.611232,10.821792,12.981361,-0.540652,-0.456051,-0.540652
29.180,580040,7.316680,14.638149,12.765883,-0.692136,0.049296,-0.514406
29.200,580060,5.937620,11.559206,11.492168,-0.385305,-0.071012,-0.160410
29.220,580080,3.117251,9.011775,11.961432,-0.306698,-0.129234,-0.100989
29.240,580100,1.268927,7.623138,11.525687,-0.416081,0.107251,-0.262466
29.260,580120,1.225831,7.374141,10.726024,-0.361856,0.346534,-0.508144
29.280,580140,2.394202,7.153875,9.241618,-0.203311,0.413017,-0.699198
29.300,580160,3.026271,6.224925,7.445967,-0.080338,0.340939,-0.630051
29.320,580180,2.365471,4.726154,5.951985,0.014256,0.187057,-0.383706
29.340,580200,1.039083,3.213019,4.975151,0.091796,0.085002,-0.195717
29.360,580220,0.387861,2.298434,4.371812,0.156547,0.044233,-0.101655
29.380,580240,0.459687,2.140416,3.706224,0.187323,0.104453,-0.048763
29.400,580260,0.775721,2.212242,3.055001,0.200913,0.058622,0.000799
29.420,580280,0.450110,1.924938,2.542642,0.258735,-0.031709,0.057689
29.440,580300,-0.344765,2.015918,2.705448,0.277787,-0.121640,0.113913
29.460,580320,-0.656011,4.764462,5.410896,0.316291,-0.150685,0.094461
29.480,580340,2.643199,10.611102,8.714894,0.234487,0.034907,-0.109116
29.500,580360,3.955221,12.770672,8.815451,-0.172534,0.427806,-0.071812
29.520,580380,-0.905008,8.097190,7.896077,-0.324818,0.350398,0.206375
29.540,580400,-2.590526,7.809886,10.242394,-0.175332,0.211172,-0.007861
29.560,580420,2.274492,11.889606,12.430696,-0.090597,0.597542,-0.448456
29.580,580440,6.430826,14.829685,12.066776,-0.484695,0.687074,-0.418479
29.600,580460,4.525041,13.172897,10.026917,-0.673484,0.526263,-0.087400
29.620,580480,0.718261,10.668563,9.677363,-0.467508,0.217700,-0.170003
29.640,580500,-1.474828,8.389283,9.318233,-0.344136,0.192119,-0.596876
29.660,580520,-1.201889,7.216124,9.299079,-0.420078,0.318289,-0.865337
29.680,580540,0.694318,7.216124,8.092402,-0.538920,0.375579,-0.798855
29.700,580560,1.154005,6.339846,6.536170,-0.514006,0.321887,-0.585951
29.720,580580,0.383072,4.836287,5.315128,-0.449655,0.188122,-0.468974
29.740,580600,-0.392649,3.557784,4.611232,-0.358392,0.057556,-0.462446
29.760,580620,-0.914585,2.092532,3.979163,-0.248743,-0.092729,-0.468974
29.780,580640,-0.766145,1.312023,3.203442,-0.115911,-0.239017,-0.398095
29.800,580660,-0.737414,0.895431,2.437297,-0.032242,-0.426473,-0.210505
29.820,580680,-1.388637,1.340753,2.930503,-0.017187,-0.436732,-0.140825
29.840,580700,-1.580173,0.972046,3.955221,0.023182,-0.291510,-0.144156
29.860,580720,-1.747767,2.183512,6.459556,0.018652,-0.274856,-0.082737
29.880,580740,1.651999,7.733272,9.490616,-0.006795,-0.342404,-0.247943
29.900,580760,4.903325,11.784261,11.133038,-0.116178,-0.279119,-0.249675
29.920,580780,1.015141,8.082825,10.515334,-0.414616,-0.093395,0.196649
29.940,580800,-2.379837,7.158663,11.760319,-0.169470,-0.274190,0.177597
29.960,580820,0.201113,10.491392,13.350069,0.293508,-0.399028,-0.220631
29.980,580840,2.633622,13.675680,14.106636,0.090864,-0.175998,-0.466576
30.000,580860,3.648763,13.967772,13.019669,-0.046631,-0.062752,-0.198648
30.020,580880,2.647987,11.717223,12.713211,0.050095,-0.061420,0.174266
30.040,580900,1.039083,8.801085,12.253524,0.017587,0.181461,0.364254
30.060,580920,-0.090980,7.292738,11.286267,-0.208107,0.320021,0.383040
30.080,580940,-0.028730,7.374141,10.524911,-0.344003,0.425008,0.139760
30.100,580960,0.675165,6.938396,9.155427,-0.339207,0.526796,-0.001199
30.120,580980,0.876278,5.884948,7.465121,-0.288845,0.512407,0.082470
30.140,581000,0.823605,4.616021,6.129156,-0.124438,0.441262,0.233554
30.160,581020,1.240196,3.811569,4.884171,0.033308,0.314292,0.383306
30.180,581040,0.909797,2.523489,3.734955,0.108717,0.197982,0.551977
30.200,581060,-0.172383,0.933739,2.973598,0.241681,0.153882,0.708391
30.220,581080,-0.933739,-0.038307,2.954445,0.282051,0.100723,0.803118
30.240,581100,-0.952892,0.354342,3.098097,0.206109,0.047297,0.835093
30.260,581120,-0.588974,2.106898,3.313575,0.150418,-0.028112,0.818040
30.280,581140,-0.541090,3.897760,4.390966,0.256337,-0.196783,0.854545
30.300,581160,0.933739,7.580042,7.728483,0.444593,-0.347734,0.883856
30.320,581180,5.492299,12.220005,10.702082,0.421144,-0.437531,1.043201
30.340,581200,4.347870,10.529699,8.188169,0.124438,-0.412351,1.611565
30.360,581220,-2.485181,8.025364,7.671022,0.256337,-0.521734,1.771443
30.380,581240,-3.960010,8.173804,10.515334,0.617127,-0.005729,1.289412
30.400,581260,1.546654,11.276690,13.757083,0.496686,0.563302,0.751291
30.420,581280,7.216124,13.886370,12.674904,-0.144956,0.634980,0.857476
30.440,581300,4.831499,12.655750,11.104307,-0.325884,0.540519,0.990974
30.460,581320,2.542642,10.342952,11.042058,-0.066616,0.627519,0.697865
30.480,581340,1.857901,8.212111,10.223241,-0.217567,0.686407,0.308031
30.500,581360,1.221043,7.206547,9.466674,-0.416747,0.716917,0.053159
30.520,581380,2.116474,7.350199,8.671799,-0.415282,0.740366,-0.014655
30.540,581400,3.035848,6.804321,7.177817,-0.419678,0.777804,0.201979
30.560,581420,2.351106,4.783615,5.837064,-0.422077,0.682677,0.489225
30.580,581440,1.398214,2.997540,5.157111,-0.372248,0.628985,0.643240
30.600,581460,1.077391,2.360683,4.553771,-0.333877,0.604070,0.659761
30.620,581480,1.177947,2.269703,3.821146,-0.277121,0.504014,0.590747
30.640,581500,1.359907,2.394202,3.538630,-0.101389,0.387703,0.481498
30.660,581520,1.819593,2.097321,3.275268,0.083403,0.263265,0.385438
30.680,581540,2.293645,2.308010,3.145981,0.215168,0.052893,0.375845
30.700,581560,2.820370,3.629610,4.563348,0.488159,-0.334277,0.413283
30.720,581580,3.098097,4.501099,7.364564,0.788329,-0.652700,0.321487
30.740,581600,4.946421,6.761226,9.428367,0.645239,-0.731972,0.257403
30.760,581620,2.882619,6.866570,9.500193,0.257403,-0.578490,0.497086
30.780,581640,0.545878,6.833052,10.424355,0.231423,-0.478700,0.326150
30.800,581660,1.604115,8.149862,11.860875,0.359591,-0.432868,-0.116044
30.820,581680,3.557784,9.251195,12.234370,0.208507,-0.327083,-0.424874
30.840,581700,6.009446,12.516887,13.833697,-0.250075,-0.172801,-0.405023
30.860,581720,5.798757,12.612655,13.244724,-0.330946,0.105386,-0.139626
30.880,581740,4.103662,10.735600,12.583924,-0.261533,0.234221,-0.163741
30.900,581760,3.265691,10.012551,12.152967,-0.294041,0.315891,-0.346801
30.920,581780,3.768473,9.030929,10.869676,-0.304700,0.367319,-0.426740
30.940,581800,4.194642,7.886500,9.107543,-0.267528,0.410619,-0.324818
30.960,581820,3.816358,6.722919,7.354988,-0.193718,0.430337,-0.130700
30.980,581840,2.983175,5.578490,5.932832,-0.137495,0.370783,-0.007594
31.000,581860,1.838747,4.362236,5.171476,-0.063285,0.249942,-0.002931
31.020,581880,0.852336,3.131616,4.280833,0.015721,0.144156,-0.084202
31.040,581900,0.660800,2.360683,3.600879,0.045832,0.033308,-0.128835
31.060,581920,0.656011,2.054225,3.011906,0.045165,-0.002931,-0.095926
31.080,581940,0.421380,1.963245,2.408567,0.011191,-0.064484,-0.044766
31.100,581960,-0.095768,1.814805,2.054225,0.025047,-0.111515,-0.065017
31.120,581980,-0.373495,1.752556,2.073379,0.101789,-0.118176,-0.116711
31.140,582000,0.301669,3.059790,3.380613,0.120841,-0.112980,-0.130700
31.160,582020,2.331953,6.057330,6.153099,0.118043,-0.084069,-0.076608
31.180,582040,5.664681,9.658210,8.896853,-0.111115,-0.024381,0.070213
31.200,582060,4.903325,10.429143,8.374918,-0.397429,-0.090997,0.299237
31.220,582080,1.637634,9.188946,8.470686,-0.255804,-0.224095,0.255538
31.240,582100,2.188300,10.237606,9.610326,0.019052,-0.249142,0.005596
31.260,582120,5.094861,14.336480,13.139379,-0.182926,-0.025447,-0.176132
31.280,582140,7.086837,15.763424,14.101848,-0.498285,0.217034,0.049562
31.300,582160,5.114015,12.636597,11.880029,-0.398628,0.324685,0.248210
31.320,582180,3.184288,10.223241,10.429143,-0.257536,0.227559,0.094194
31.340,582200,2.379837,8.614338,9.217676,-0.184925,0.229957,-0.105386
31.360,582220,1.881842,6.828263,8.853758,-0.182660,0.249942,-0.228092
31.380,582240,2.590526,6.205771,8.408437,-0.221963,0.320421,-0.259135
31.400,582260,2.935291,5.698200,6.995857,-0.249942,0.331746,-0.099524
31.420,582280,1.939303,4.443638,5.770026,-0.200646,0.229957,0.079273
31.440,582300,0.426168,2.825158,4.941632,-0.133631,0.053692,0.136695
31.460,582320,-1.110910,1.833959,4.592079,-0.084735,-0.111781,0.043167
31.480,582340,-1.058237,1.608904,4.486734,-0.026646,-0.193985,-0.111115
31.500,582360,0.201113,2.102109,3.768473,-0.001066,-0.209306,-0.170669
31.520,582380,0.646434,1.862689,3.074155,0.040369,-0.298571,-0.093795
31.540,582400,-0.435745,0.933739,3.371036,0.131499,-0.429404,-0.011724
31.560,582420,-1.393425,1.130063,4.960786,0.225694,-0.529727,-0.098591
31.580,582440,0.210690,4.362236,8.317456,0.284315,-0.469773,-0.402891
31.600,582460,4.783615,9.002198,9.078813,0.130300,-0.323885,-0.647237
31.620,582480,4.295198,7.742848,8.738836,0.126703,-0.335476,-0.461513
31.640,582500,2.724602,6.924031,10.994174,0.238484,-0.606202,-0.312827
31.660,582520,2.983175,7.876924,11.607090,0.217433,-0.690271,-0.344536
31.680,582540,3.634398,10.352529,12.890382,-0.028378,-0.451521,-0.533325
31.700,582560,5.363012,14.183250,14.010868,-0.213037,-0.269260,-0.713587
31.720,582580,5.410896,13.292608,12.545617,-0.130433,-0.203711,-0.679879
31.740,582600,4.735731,11.453861,11.894394,0.001332,-0.204776,-0.596476
31.760,582620,3.600879,10.979809,11.214440,-0.009992,-0.132965,-0.481764
31.780,582640,2.700660,10.457873,10.596737,0.035173,-0.025580,-0.441528
31.800,582660,3.088520,9.318233,9.476251,0.096726,0.101123,-0.444726
31.820,582680,2.949656,7.541735,7.422025,0.118975,0.054625,-0.342138
31.840,582700,1.824382,6.200983,5.731719,0.172668,-0.067415,-0.260734
31.860,582720,0.603339,5.037400,4.865018,0.304034,-0.132832,-0.275389
31.880,582740,-0.349553,3.921702,4.194642,0.430337,-0.085668,-0.296573
31.900,582760,-0.292093,3.203442,3.533842,0.472571,-0.107251,-0.220631
31.920,582780,0.148441,3.088520,3.050213,0.437531,-0.137628,-0.086867
31.940,582800,0.416591,2.987964,2.647987,0.422343,-0.113913,0.092729
31.960,582820,-0.004788,2.547431,1.972822,0.381041,-0.030243,0.279253
31.980,582840,-0.632069,3.031059,1.498770,0.403424,-0.001865,0.469773
32.000,582860,-1.345541,3.629610,1.786075,0.537588,0.089265,0.613663
32.020,582880,-0.785298,6.593631,4.534618,0.703727,0.417280,0.634847
32.040,582900,4.266468,13.254301,6.373365,0.708790,0.821637,0.861873
32.060,582920,3.256114,11.865664,5.166687,0.563968,1.119542,1.610499
32.080,582940,-0.622492,9.926360,5.717354,0.709323,1.299404,1.849516
32.100,582960,0.407014,10.409989,7.297527,1.023882,1.518436,1.574394
32.120,582980,2.997540,13.436260,9.203311,0.904374,1.765447,1.204011
32.140,583000,5.142745,13.824121,9.811439,0.572228,1.845253,1.112214
32.160,583020,5.793968,12.588713,10.424355,0.465243,1.884289,1.132466
32.180,583040,4.908113,11.540052,9.284714,0.223962,1.676315,1.036273
32.200,583060,3.232172,10.036493,8.470686,0.058622,1.490191,0.708124
32.220,583080,3.289633,9.074024,8.197746,0.126969,1.348833,0.349066
32.240,583100,4.266468,8.384495,7.546524,0.092063,1.075043,0.159345
32.260,583120,4.280833,7.441179,6.258443,0.003198,0.822170,0.218766
32.280,583140,2.973598,5.789180,5.123591,-0.074343,0.662292,0.397162
32.300,583160,1.283292,4.592079,4.802769,-0.108317,0.523066,0.448323
32.320,583180,1.182736,3.869030,4.577713,-0.068614,0.413150,0.358259
32.340,583200,1.589750,3.078943,3.629610,-0.039303,0.264064,0.349998
32.360,583220,1.192312,2.719813,2.949656,-0.115911,0.114312,0.469107
32.380,583240,0.407014,2.844312,2.705448,-0.124172,-0.003331,0.510009
32.400,583260,-0.383072,2.451663,2.772485,-0.043833,-0.009326,0.458449
32.420,583280,-0.761356,2.226608,2.940080,0.013723,-0.066083,0.359991
32.440,583300,0.718261,4.256891,6.191406,0.104587,-0.042634,0.144423
32.460,583320,7.134721,9.974244,8.667010,-0.026247,0.031842,0.136695
32.480,583340,5.449203,11.281479,6.459556,-0.529594,-0.242214,0.440196
32.500,583360,0.440533,8.949526,7.465121,-0.207041,-0.263132,0.248077
32.520,583380,0.804452,9.054871,9.490616,0.177464,-0.245279,-0.267795
32.540,583400,3.385401,11.875240,9.490616,-0.031043,-0.348000,-0.707991
32.560,583420,4.970363,14.154520,9.423578,-0.352796,-0.176398,-0.641775
32.580,583440,4.189853,12.622231,9.236830,-0.253939,0.067149,-0.329348
32.600,583460,3.648763,10.907983,9.605537,-0.209706,0.073011,-0.222629
32.620,583480,3.222595,10.515334,9.179369,-0.364787,0.094861,-0.243014
32.640,583500,3.481169,10.093954,8.542512,-0.283250,0.145888,-0.314426
32.660,583520,3.816358,8.772355,8.054094,-0.211038,0.068348,-0.264997
32.680,583540,3.974375,8.058883,7.201759,-0.171069,-0.054625,-0.140159
32.700,583560,3.371036,6.521805,6.263232,-0.152816,-0.225294,0.019851
32.720,583580,2.571373,5.295974,5.535394,-0.089132,-0.261133,0.102322
32.740,583600,2.011129,4.304775,4.596867,-0.052093,-0.351730,0.120041
32.760,583620,1.704672,3.040636,3.696647,-0.031176,-0.446325,0.163608
32.780,583640,1.699883,2.489970,3.409343,-0.062752,-0.502282,0.240749
32.800,583660,1.719037,2.964022,3.236961,-0.149086,-0.520534,0.328948
32.820,583680,1.335965,3.624821,2.657564,-0.194384,-0.527462,0.311228
32.840,583700,0.632069,3.222595,2.173935,-0.115511,-0.517337,0.183992
32.860,583720,0.114922,2.877831,2.432509,-0.037971,-0.508144,0.098591
32.880,583740,2.523489,5.348647,5.770026,0.029311,-0.203844,0.097259
32.900,583760,8.858546,10.237606,6.785168,-0.305899,-0.137761,0.452054
32.920,583780,5.324705,10.342952,5.382165,-0.639776,-0.473104,0.697199
32.940,583800,0.938527,10.400413,6.100426,-0.299770,-0.480165,0.377044
32.960,583820,1.747767,11.453861,8.556877,0.173201,0.131632,-0.203178
32.980,583840,6.263232,14.221559,10.505757,-0.139493,0.387037,-0.424208
33.000,583860,8.532935,16.462530,10.807426,-0.556107,0.256870,-0.146821
33.020,583880,6.742072,14.427460,9.710882,-0.269394,0.407688,0.001466
33.040,583900,4.850653,12.411542,9.399636,-0.167738,0.339340,-0.077008
33.060,583920,3.897760,11.693281,8.906430,-0.177198,0.372248,-0.227026
33.080,583940,3.500323,10.309433,8.068460,-0.095926,0.374646,-0.316957
33.100,583960,3.797204,8.992621,7.412448,-0.038371,0.324551,-0.290178
33.120,583980,3.806781,7.096414,6.138733,-0.015322,0.256603,-0.097259
33.140,584000,3.078943,4.941632,5.046977,-0.058755,0.144822,0.173334
33.160,584020,2.389413,3.351882,4.568137,-0.083270,0.066083,0.396363
33.180,584040,1.881842,2.513912,3.691859,-0.161876,-0.066216,0.511208
33.200,584060,1.024718,1.608904,2.513912,-0.134830,-0.214502,0.519602
33.220,584080,-0.603339,0.689530,1.752556,-0.045299,-0.386237,0.415948
33.240,584100,-1.551443,0.708684,1.929727,0.050628,-0.434600,0.124704
33.260,584120,-0.876278,1.532289,2.504335,0.152816,-0.403424,-0.253539
33.280,584140,0.229843,2.322376,2.983175,0.174666,-0.432069,-0.400760
33.300,584160,1.814805,4.563348,6.009446,0.151484,-0.396629,-0.393432
33.320,584180,8.413225,10.366894,9.399636,-0.006662,-0.310429,-0.262998
33.340,584200,9.835381,12.071565,7.833828,-0.306698,-0.508011,0.267528
33.360,584220,3.198653,8.092402,6.593631,-0.160144,-0.791927,0.483629
33.380,584240,-0.359130,4.903325,8.834604,0.081671,-0.708124,0.109649
33.400,584260,2.403779,8.681376,11.449073,-0.150951,-0.424075,-0.533991
33.420,584280,8.465898,17.166426,12.488156,-0.725977,-0.231689,-0.782334
33.440,584300,7.661446,15.954960,10.084377,-0.560104,-0.113113,-0.446191
33.460,584320,5.626374,12.042834,9.969456,-0.052626,-0.087000,-0.292309
33.480,584340,4.309563,10.218452,9.902418,-0.055691,-0.167205,-0.296839
33.500,584360,3.663129,9.639056,9.313444,-0.158012,-0.125904,-0.385838
33.520,584380,4.438850,9.552865,8.643068,-0.152816,-0.009992,-0.419812
33.540,584400,5.085284,8.461109,6.900089,-0.151217,-0.012391,-0.221031
33.560,584420,4.161122,6.019023,5.420473,-0.069147,-0.169204,0.047164
33.580,584440,2.892196,4.347870,4.232949,0.006129,-0.306299,0.146954
33.600,584460,1.891419,3.466804,3.189077,0.053825,-0.369583,0.101789
33.620,584480,1.096544,2.916138,2.571373,0.105519,-0.435933,0.068081
33.640,584500,0.828394,2.341529,2.102109,0.161743,-0.378643,0.045432
33.660,584520,0.905008,1.690306,1.881842,0.148286,-0.301636,0.041568
33.680,584540,0.818817,1.685518,1.723825,0.024381,-0.287513,0.063685
33.700,584560,0.143652,1.877054,1.561020,-0.036639,-0.282983,0.071145
33.720,584580,0.081403,2.173935,1.628057,-0.016121,-0.184925,0.012391
33.740,584600,1.551443,3.979163,5.200206,0.048363,0.001865,-0.031576
33.760,584620,9.279925,10.979809,9.203311,-0.290444,0.310429,0.094994
33.780,584640,9.437943,14.968549,5.755661,-0.636979,-0.168138,0.697998
33.800,584660,2.140416,10.319010,5.099649,-0.032375,-0.222363,0.461113
33.820,584680,2.533065,8.030152,7.685388,0.550645,-0.025314,-0.182660
33.840,584700,6.957550,13.110648,9.749189,0.277654,0.012790,-0.419545
33.860,584720,8.791509,17.070658,9.011775,-0.280452,-0.092462,-0.218366
33.880,584740,5.291186,15.241488,7.867347,-0.009992,0.020118,-0.225694
33.900,584760,4.027047,12.421119,7.484274,0.196383,0.290444,-0.342138
33.920,584780,4.299986,10.783484,7.144298,-0.049695,0.378776,-0.235420
33.940,584800,4.817134,10.812215,6.445191,-0.211571,0.449389,-0.052760
33.960,584820,5.329493,10.524911,5.559336,-0.082737,0.562236,0.187723
33.980,584840,4.630386,8.341399,4.999093,0.031443,0.623655,0.410752
34.000,584860,3.529053,5.736507,4.702212,0.154815,0.533724,0.431802
34.020,584880,3.093309,3.423708,4.376601,0.156946,0.439397,0.373181
34.040,584900,2.964022,2.772485,3.859453,0.023582,0.302968,0.357060
34.060,584920,2.317587,3.002329,3.179500,-0.035306,0.164541,0.317623
34.080,584940,1.163582,2.346318,2.398990,0.035706,0.071012,0.212104
34.100,584960,-0.100556,1.695095,2.504335,0.049296,0.052893,0.061286
34.120,584980,-0.215478,2.193089,2.920926,0.014655,0.055824,-0.074609
34.140,585000,-0.086191,2.949656,3.615245,-0.068081,0.082070,-0.184658
34.160,585020,-0.440533,3.519476,4.405331,-0.088732,-0.016121,-0.310562
34.180,585040,3.730166,7.680599,7.484274,0.087266,-0.037172,-0.553842
34.200,585060,9.495404,12.526464,6.785168,-0.118576,-0.193452,-0.056623
34.220,585080,3.323152,9.662998,6.727707,-0.414482,-0.159877,0.355594
