Time(s),Time(ms),AccelX,AccelY,AccelZ,GyroX,GyroY,GyroZ
0.000,245940,9.409213,3.361459,4.079720,-0.219965,-0.194118,0.003198
0.020,245960,9.165004,3.615245,4.185065,-0.216900,-0.196516,-0.022250
0.040,245980,9.533711,3.835511,4.266468,-0.196649,-0.174266,-0.050361
0.060,246000,9.935937,3.701436,4.189853,-0.134564,-0.175466,-0.050228
0.080,246020,9.888053,3.524265,4.165911,-0.122972,-0.159211,-0.025181
0.100,246040,9.624691,3.399766,4.357447,-0.167871,-0.133231,0.010658
0.120,246060,9.471462,3.586514,4.529830,-0.185858,-0.105919,0.046498
0.140,246080,9.591172,3.658340,4.467580,-0.204643,-0.060221,0.047430
0.160,246100,10.007763,3.691859,4.515464,-0.193185,-0.063018,0.014789
0.180,246120,10.500969,3.897760,4.630386,-0.186257,-0.058888,-0.006928
0.200,246140,10.362105,4.084508,4.884171,-0.152417,-0.049162,-0.033308
0.220,246160,10.017340,4.070143,5.109226,-0.129101,-0.023182,-0.049296
0.240,246180,10.180145,4.098873,5.080496,-0.083536,-0.013057,-0.026913
0.260,246200,10.726024,4.113238,5.133168,-0.062485,0.024115,0.018253
0.280,246220,11.075577,4.209007,5.382165,-0.040369,0.041302,0.046098
0.300,246240,11.171345,4.223372,5.449203,-0.013323,0.039969,0.089531
0.320,246260,11.085154,4.189853,5.463568,0.023715,-0.001599,0.127236
0.340,246280,11.037270,4.041412,5.501875,0.060620,-0.047697,0.139093
0.360,246300,11.214440,3.936068,5.343858,0.102855,-0.069413,0.169603
0.380,246320,11.319786,3.787627,5.142745,0.140692,-0.084868,0.170669
0.400,246340,11.228806,3.476381,5.027823,0.155214,-0.119242,0.132299
0.420,246360,10.898406,3.327940,4.941632,0.118975,-0.143890,0.094861
0.440,246380,10.989386,3.371036,4.879383,0.079806,-0.193185,0.098591
0.460,246400,10.994174,3.160346,4.817134,0.033841,-0.210106,0.096593
0.480,246420,10.577583,3.064578,4.558560,-0.044100,-0.224361,0.070879
0.500,246440,10.438720,3.179500,4.223372,-0.093395,-0.247943,0.073011
0.520,246460,10.342952,3.165135,3.969586,-0.096193,-0.232622,0.071812
0.540,246480,10.290278,3.160346,3.701436,-0.120974,-0.168271,0.045965
0.560,246500,10.405201,3.078943,3.557784,-0.093928,-0.148286,-0.011724
0.580,246520,10.424355,3.074155,3.457227,-0.073943,-0.091397,-0.031975
0.600,246540,10.606314,2.959233,3.500323,-0.056357,-0.078207,-0.045832
0.620,246560,10.409989,2.964022,3.620033,-0.067948,-0.021450,-0.074077
0.640,246580,10.596737,3.189077,3.715801,-0.072478,-0.040236,-0.085002
0.660,246600,10.826580,3.524265,3.787627,-0.047031,-0.030510,-0.097126
0.680,246620,10.596737,3.682282,3.969586,-0.033308,-0.000133,-0.132165
0.700,246640,10.620679,3.749320,3.979163,0.000799,0.009326,-0.152683
0.720,246660,10.807426,3.926491,3.988740,0.013989,0.020251,-0.158012
0.740,246680,10.654198,4.165911,4.022259,0.035839,0.032775,-0.144023
0.760,246700,10.500969,4.400543,4.185065,0.077008,0.017720,-0.125237
0.780,246720,10.654198,4.505888,4.371812,0.109916,0.035440,-0.103254
0.800,246740,10.716447,4.376601,4.405331,0.103521,0.104720,-0.057289
0.820,246760,10.630256,4.323928,4.453215,0.105652,0.101256,0.028511
0.840,246780,10.328587,4.242526,4.544195,0.123239,0.071545,0.091930
0.860,246800,9.979033,4.065354,4.587290,0.155348,0.017054,0.074876
0.880,246820,10.046070,3.797204,4.635174,0.133498,0.018786,0.032242
0.900,246840,9.916783,3.672705,4.663905,0.071279,0.055957,0.002931
0.920,246860,9.725247,3.658340,4.769250,0.043167,0.025847,0.021850
0.940,246880,9.648633,3.620033,4.750096,-0.020651,0.048230,0.069547
0.960,246900,9.581595,3.658340,4.582502,-0.073144,0.051827,0.124305
0.980,246920,9.303867,3.758897,4.477157,-0.109250,0.040369,0.162809
1.000,246940,9.069236,3.825934,4.434062,-0.099790,0.036772,0.184259
1.020,246960,9.155427,3.749320,4.261679,-0.055424,0.021317,0.197582
1.040,246980,9.006987,3.447650,4.209007,-0.008394,-0.010792,0.195317
1.060,247000,8.652645,3.088520,4.070143,0.014522,-0.023715,0.183326
1.080,247020,8.106767,2.681506,3.797204,0.018386,-0.028911,0.192519
1.100,247040,7.733272,2.466028,3.548207,0.001998,-0.034374,0.199980
1.120,247060,7.627927,2.317587,3.418920,0.003997,-0.053825,0.158145
1.140,247080,7.723695,2.207454,3.303998,-0.015322,-0.026380,0.077940
1.160,247100,7.359776,2.059013,3.117251,-0.031576,0.035306,0.002265
1.180,247120,6.727707,1.857901,2.810793,-0.063951,0.100856,-0.040769
1.200,247140,6.722919,1.824382,2.681506,-0.075542,0.071678,-0.061020
1.220,247160,7.101202,1.939303,2.643199,-0.085268,0.081138,-0.058888
1.240,247180,7.235278,1.934515,2.657564,-0.075675,0.103920,-0.051560
1.260,247200,7.388506,2.044648,2.767697,-0.063818,0.123772,-0.052493
1.280,247220,7.307104,1.948880,2.815581,-0.054492,0.165606,-0.072211
1.300,247240,7.369353,1.886631,2.873042,-0.048763,0.153216,-0.106319
1.320,247260,7.493851,1.910573,2.964022,-0.049962,0.131899,-0.137228
1.340,247280,7.982268,2.059013,3.098097,-0.042767,0.111648,-0.143090
1.360,247300,8.571242,2.274492,3.016694,-0.012124,0.126969,-0.092729
1.380,247320,8.623915,2.451663,3.145981,0.026913,0.147487,-0.033708
1.400,247340,8.676587,2.480393,3.227384,0.048629,0.142291,-0.031309
1.420,247360,9.011775,2.336741,3.318364,0.060087,0.115645,-0.071812
1.440,247380,9.318233,2.183512,3.313575,0.023449,0.091397,-0.084069
1.460,247400,9.533711,2.130840,3.361459,-0.028378,0.047963,-0.062352
1.480,247420,9.758766,2.173935,3.308787,-0.065816,0.005729,-0.016787
1.500,247440,9.667787,2.370260,3.337517,-0.066349,-0.013723,0.043833
1.520,247460,9.279925,2.609680,3.409343,-0.036106,-0.005462,0.083802
1.540,247480,9.059659,2.863465,3.658340,-0.000933,0.016787,0.060620
1.560,247500,9.327810,3.035848,3.840300,0.025847,0.064351,-0.009326
1.580,247520,9.739613,2.887407,3.916914,0.039570,0.111515,-0.061953
1.600,247540,10.141838,2.829947,3.849876,0.029311,0.077940,-0.065816
1.620,247560,10.582372,2.719813,3.869030,0.021850,0.006662,-0.031842
1.640,247580,10.409989,2.638410,3.734955,-0.015988,-0.036639,0.028511
1.660,247600,10.060435,2.595315,3.615245,-0.045832,-0.106718,0.073943
1.680,247620,9.734824,2.557007,3.495534,-0.068214,-0.140692,0.097525
1.700,247640,9.538500,2.509123,3.380613,-0.090730,-0.155348,0.104720
1.720,247660,9.471462,2.513912,3.294421,-0.110182,-0.145489,0.102188
1.740,247680,9.500193,2.509123,3.189077,-0.109916,-0.122306,0.094727
1.760,247700,9.519346,2.566584,3.078943,-0.087799,-0.098724,0.090464
1.780,247720,9.442732,2.619257,3.141193,-0.059288,-0.063951,0.086067
1.800,247740,9.342175,2.638410,3.193865,-0.029977,-0.018786,0.066882
1.820,247760,9.394848,2.662352,3.327940,0.000000,0.010126,0.028378
1.840,247780,9.538500,2.595315,3.418920,0.015455,0.037172,-0.011458
1.860,247800,9.730036,2.456451,3.447650,0.021983,0.041968,-0.030377
1.880,247820,10.007763,2.279280,3.390190,0.026247,0.031709,0.006928
1.900,247840,10.170568,2.264915,3.284845,0.003864,0.036239,0.084069
1.920,247860,10.251971,2.384625,3.217807,-0.005596,0.032775,0.145089
1.940,247880,10.304645,2.394202,3.179500,-0.026779,0.035306,0.142158
1.960,247900,10.184934,2.298434,3.007117,-0.053026,0.032908,0.083003
1.980,247920,9.773131,2.111686,2.887407,-0.083003,0.021717,0.012923
2.000,247940,9.361329,2.020706,2.935291,-0.118842,0.017054,-0.047164
2.020,247960,9.236830,1.934515,2.887407,-0.137228,0.036905,-0.078473
2.040,247980,8.853758,1.891419,2.820370,-0.153616,0.074876,-0.072345
2.060,248000,8.331821,1.853112,2.786851,-0.152283,0.101789,-0.078207
2.080,248020,7.733272,1.781286,2.719813,-0.125904,0.128302,-0.099124
2.100,248040,7.388506,1.790863,2.734178,-0.113913,0.114712,-0.145755
2.120,248060,7.268796,1.819593,2.777274,-0.126969,0.085801,-0.192919
2.140,248080,7.747637,2.025495,3.031059,-0.152550,0.007328,-0.233021
2.160,248100,8.274361,2.154782,3.112462,-0.178530,0.000133,-0.225827
2.180,248120,7.924808,2.308010,3.141193,-0.174666,0.027046,-0.165740
2.200,248140,7.546524,2.466028,3.256114,-0.150285,0.019585,-0.128168
2.220,248160,7.752425,2.801216,3.505111,-0.118576,0.001332,-0.126969
2.240,248180,8.106767,3.026271,3.730166,-0.081671,0.018919,-0.139893
2.260,248200,8.394072,2.987964,3.921702,-0.044100,0.039436,-0.145622
2.280,248220,8.183381,2.949656,4.007894,-0.057956,0.082737,-0.118975
2.300,248240,7.829040,3.007117,4.247314,-0.069680,0.091796,-0.103521
2.320,248260,8.092402,3.179500,4.323928,-0.053825,0.078207,-0.098458
2.340,248280,8.537724,3.203442,4.261679,-0.074876,0.116844,-0.096459
2.360,248300,8.619126,3.074155,4.165911,-0.120041,0.118842,-0.097392
2.380,248320,8.628703,2.930503,4.189853,-0.156147,0.056224,-0.102988
2.400,248340,8.585608,2.916138,4.146757,-0.214236,0.047830,-0.078873
2.420,248360,8.537724,2.973598,4.113238,-0.254072,0.012524,-0.039436
2.440,248380,8.532935,2.992752,4.098873,-0.311095,0.048763,-0.033708
2.460,248400,8.566454,2.954445,3.998317,-0.311228,0.034773,-0.033974
2.480,248420,8.595184,3.083732,4.017470,-0.311095,0.003864,0.001865
2.500,248440,8.561666,3.241749,4.046201,-0.296173,-0.006928,0.033974
2.520,248460,8.767567,3.423708,4.151546,-0.290977,0.060487,0.079672
2.540,248480,9.260772,3.394978,4.276044,-0.192652,0.010658,0.088199
2.560,248500,9.576807,3.222595,4.548983,-0.104187,0.001066,0.060887
2.580,248520,9.366117,3.131616,4.520253,-0.097925,0.044632,0.051560
2.600,248540,9.528923,3.208230,4.472369,-0.150018,0.034907,0.058888
2.620,248560,9.983821,3.107674,4.367024,-0.174933,-0.021450,-0.006262
2.640,248580,10.046070,3.035848,4.161122,-0.203844,-0.057156,-0.066216
2.660,248600,9.959879,3.122039,4.108450,-0.281384,-0.045832,-0.068614
2.680,248620,9.974244,3.409343,3.993528,-0.317090,-0.067548,-0.048763
2.700,248640,9.763555,3.600879,4.070143,-0.299770,-0.076075,-0.079139
2.720,248660,9.619903,3.524265,4.103662,-0.234221,-0.065150,-0.159078
2.740,248680,9.552865,3.399766,4.060566,-0.186124,0.009593,-0.189855
2.760,248700,9.337387,3.414132,4.237737,-0.160144,0.063685,-0.185591
2.780,248720,9.289502,3.423708,4.472369,-0.158145,0.118043,-0.191720
2.800,248740,9.706094,3.576937,4.687847,-0.169603,0.161743,-0.176931
2.820,248760,10.137050,3.687071,4.721366,-0.193185,0.181994,-0.149752
2.840,248780,10.256760,3.869030,4.812346,-0.180129,0.179862,-0.122706
2.860,248800,9.854534,3.892972,4.975151,-0.171868,0.190654,-0.109516
2.880,248820,9.921572,3.940856,5.080496,-0.152017,0.176798,-0.122706
2.900,248840,10.333375,3.993528,5.109226,-0.119508,0.183593,-0.103254
2.920,248860,10.644621,3.950433,5.161899,-0.097525,0.182527,-0.066882
2.940,248880,11.085154,3.955221,5.300763,-0.094061,0.135363,-0.047031
2.960,248900,10.797850,4.189853,5.449203,-0.111914,0.087799,-0.072744
2.980,248920,10.654198,4.170700,5.568913,-0.066616,0.098991,-0.166939
3.000,248940,11.032481,4.132392,5.544971,-0.017853,0.114579,-0.173334
3.020,248960,11.932701,4.299986,5.497087,0.005862,0.143490,-0.032775
3.040,248980,11.549629,4.390966,5.779603,-0.009859,0.095260,-0.062219
3.060,249000,11.501745,4.453215,5.928043,-0.053292,0.082470,-0.062752
3.080,249020,11.482592,4.510676,5.923255,-0.049429,0.059954,-0.053426
3.100,249040,11.511322,4.553771,5.961562,-0.061420,0.038237,-0.076342
3.120,249060,11.444284,4.620809,5.889736,-0.053026,0.012923,-0.073810
3.140,249080,11.305421,4.687847,5.808333,-0.044499,-0.029577,-0.045832
3.160,249100,11.257536,4.596867,5.808333,-0.024381,-0.072611,-0.025580
3.180,249120,11.018116,4.400543,5.784391,-0.046897,-0.082337,-0.003730
3.200,249140,10.893618,4.347870,5.707777,-0.074343,-0.124172,0.009992
3.220,249160,10.730812,4.472369,5.525817,-0.103787,-0.118443,0.034640
3.240,249180,10.726024,4.601655,5.358223,-0.082470,-0.154015,0.059954
3.260,249200,10.759542,4.548983,5.267244,-0.047963,-0.183992,0.068481
3.280,249220,10.577583,4.434062,5.228937,-0.020917,-0.199580,0.060221
3.300,249240,10.204087,4.477157,5.133168,-0.016254,-0.192786,0.091130
3.320,249260,10.189722,4.314352,5.099649,0.008260,-0.191853,0.120308
3.340,249280,10.022128,4.175488,4.979939,0.007461,-0.160943,0.122972
3.360,249300,9.730036,4.113238,4.879383,-0.020784,-0.129101,0.116711
3.380,249320,9.605537,4.089296,4.855441,-0.018253,-0.107917,0.117776
3.400,249340,9.744401,4.070143,4.831499,-0.016121,-0.091930,0.129368
3.420,249360,9.562442,3.983952,4.841076,-0.040636,-0.036905,0.150418
3.440,249380,9.275137,3.945644,4.836287,-0.059288,-0.051560,0.148420
3.460,249400,9.308656,3.763685,4.697424,-0.012790,-0.114446,0.120175
3.480,249420,9.246407,3.399766,4.448427,-0.108184,0.000799,0.102721
3.500,249440,9.045294,3.026271,4.094085,-0.059821,-0.095926,0.119242
3.520,249460,8.710106,2.925714,3.825934,-0.043833,-0.142557,0.181461
3.540,249480,8.537724,2.916138,3.797204,0.074743,-0.307231,0.214369
3.560,249500,8.566454,3.098097,3.912126,-0.046098,-0.210505,0.201579
3.580,249520,8.609550,3.002329,3.696647,0.003064,-0.216634,0.148420
3.600,249540,8.063671,2.485181,3.394978,0.015588,-0.169070,0.138161
3.620,249560,7.685388,2.274492,3.270479,0.009060,-0.202245,0.129634
3.640,249580,7.522582,2.250550,3.308787,0.004130,-0.207574,0.111248
3.660,249600,7.517793,2.269703,3.169923,-0.029044,-0.150951,0.074876
3.680,249620,7.508216,2.250550,3.031059,-0.040769,-0.130700,0.004263
3.700,249640,7.450756,2.073379,3.098097,-0.055158,-0.098058,-0.067681
3.720,249660,7.326257,2.020706,3.174711,-0.071545,-0.049029,-0.094061
3.740,249680,7.177817,1.843535,3.035848,-0.107518,0.041435,-0.057423
3.760,249700,7.115568,1.819593,2.940080,-0.161343,0.068481,-0.001599
3.780,249720,7.129933,1.905785,3.026271,-0.194251,0.029178,0.036106
3.800,249740,7.043741,1.934515,2.983175,-0.168404,-0.022516,0.029977
3.820,249760,7.249643,1.977611,3.069367,-0.128568,-0.035573,0.004796
3.840,249780,7.675811,1.991976,3.165135,-0.114579,-0.053026,0.008260
3.860,249800,8.288726,2.097321,3.112462,-0.073810,-0.087133,0.035173
3.880,249820,8.719683,2.121263,3.031059,-0.061153,-0.083270,0.076075
3.900,249840,8.652645,2.068590,3.102885,-0.075542,-0.101655,0.104853
3.920,249860,8.671799,1.987187,3.050213,-0.086467,-0.142957,0.124971
3.940,249880,8.877700,1.991976,3.031059,-0.074743,-0.160943,0.161743
3.960,249900,9.093178,2.015918,3.198653,-0.096593,-0.173334,0.211704
3.980,249920,9.174581,2.149993,3.174711,-0.076208,-0.162942,0.240882
4.000,249940,9.131485,2.274492,3.620033,-0.102988,-0.096193,0.205709
4.020,249960,9.016563,2.269703,3.586514,-0.110982,-0.039170,0.125104
4.040,249980,9.035717,2.217031,3.639187,-0.135496,0.015455,0.041968
4.060,250000,9.346964,2.264915,3.615245,-0.156014,0.055557,-0.021450
4.080,250020,9.572019,2.284068,3.543418,-0.128435,0.050095,-0.027979
4.100,250040,9.725247,2.279280,3.624821,-0.125237,0.069813,0.018919
4.120,250060,9.715671,2.403779,3.615245,-0.100456,0.042101,0.073144
4.140,250080,9.830592,2.580950,3.624821,-0.059954,-0.006262,0.087933
4.160,250100,9.806650,2.595315,3.600879,-0.009992,-0.024914,0.063285
4.180,250120,10.022128,2.576161,3.586514,-0.007861,-0.064884,0.022250
4.200,250140,10.213664,2.456451,3.457227,0.001865,-0.080205,0.010792
4.220,250160,10.275913,2.341529,3.414132,-0.015855,-0.095260,0.035440
4.240,250180,10.232818,2.398990,3.404555,-0.049695,-0.106585,0.074876
4.260,250200,10.194510,2.418144,3.275268,-0.062619,-0.096859,0.098458
4.280,250220,10.113108,2.379837,3.227384,-0.062752,-0.061420,0.105519
4.300,250240,9.921572,2.298434,3.126827,-0.075409,-0.027179,0.109250
4.320,250260,9.816227,2.221819,3.136404,-0.074876,0.001199,0.106718
4.340,250280,9.782708,2.202666,3.126827,-0.061153,0.015988,0.109783
4.360,250300,9.787497,2.197877,3.174711,-0.028511,0.033708,0.103654
4.380,250320,9.701305,2.188300,3.236961,0.000133,0.065949,0.089132
4.400,250340,9.667787,2.183512,3.313575,0.028112,0.087133,0.055424
4.420,250360,9.739613,2.130840,3.361459,0.050628,0.113380,0.027179
4.440,250380,9.782708,2.092532,3.399766,0.067948,0.117776,0.010525
4.460,250400,9.931149,2.082955,3.428497,0.085401,0.099257,-0.000533
4.480,250420,9.979033,2.082955,3.452439,0.092196,0.085135,-0.012524
4.500,250440,9.945514,2.054225,3.452439,0.087266,0.069680,-0.022783
4.520,250460,9.844957,2.059013,3.476381,0.075675,0.059954,-0.040636
4.540,250480,9.888053,2.035071,3.462016,0.061953,0.043833,-0.071279
4.560,250500,9.878476,2.039860,3.428497,0.035839,0.039037,-0.103787
4.580,250520,9.921572,2.039860,3.332729,0.008394,0.029711,-0.127502
4.600,250540,10.017340,2.087744,3.236961,-0.020384,0.015721,-0.132965
4.620,250560,10.036493,2.135628,3.227384,-0.043833,0.026113,-0.129368
4.640,250580,10.055647,2.169147,3.208230,-0.040502,0.003464,-0.105253
4.660,250600,10.132261,2.193089,3.208230,-0.030643,-0.019319,-0.088199
4.680,250620,10.122684,2.154782,3.227384,-0.028112,-0.029178,-0.093395
4.700,250640,9.979033,2.173935,3.150769,-0.040769,-0.037172,-0.097126
4.720,250660,9.720459,2.078167,3.045424,-0.048629,-0.027312,-0.106185
4.740,250680,9.615114,2.020706,2.935291,-0.064084,-0.042767,-0.113779
4.760,250700,9.356541,2.054225,2.920926,-0.083136,-0.033974,-0.119908
4.780,250720,8.973468,2.121263,2.882619,-0.098858,-0.006795,-0.129501
4.800,250740,8.882488,2.212242,2.896984,-0.107118,0.011991,-0.164141
4.820,250760,8.997410,2.231396,2.916138,-0.122440,0.062619,-0.193319
4.840,250780,8.901642,2.217031,2.853889,-0.141092,0.113113,-0.199580
4.860,250800,8.767567,2.116474,2.777274,-0.152017,0.131499,-0.200247
4.880,250820,8.489840,2.068590,2.681506,-0.151750,0.141758,-0.195850
4.900,250840,8.259995,2.054225,2.633622,-0.150152,0.130966,-0.191453
4.920,250860,8.006210,2.035071,2.691083,-0.153083,0.127769,-0.192652
4.940,250880,7.723695,1.996764,2.710236,-0.155881,0.130167,-0.191054
4.960,250900,7.450756,1.996764,2.772485,-0.160677,0.120974,-0.182127
4.980,250920,7.321469,1.900996,2.738967,-0.165074,0.120441,-0.150018
5.000,250940,7.024588,1.857901,2.604892,-0.194118,0.132165,-0.094328
5.020,250960,7.096414,1.953669,2.585738,-0.213570,0.083669,-0.062352
5.040,250980,7.412448,2.011129,2.676718,-0.210372,0.076874,-0.075009
5.060,251000,7.603985,1.987187,2.719813,-0.192119,0.105253,-0.114845
5.080,251020,7.680599,2.001553,2.810793,-0.174266,0.115911,-0.148953
5.100,251040,7.426814,1.939303,2.834735,-0.183859,0.165606,-0.152550
5.120,251060,6.976704,2.020706,2.810793,-0.174799,0.198248,-0.130700
5.140,251080,7.115568,2.317587,2.853889,-0.139760,0.169603,-0.082737
5.160,251100,7.838616,2.418144,2.896984,-0.084069,0.148553,-0.064884
5.180,251120,8.446744,2.513912,3.184288,-0.051028,0.121907,-0.095527
5.200,251140,8.398860,2.604892,3.428497,-0.032908,0.140159,-0.141092
5.220,251160,8.149862,2.858677,3.663129,-0.026513,0.123905,-0.158945
5.240,251180,8.207323,2.724602,3.806781,-0.024515,0.108983,-0.140692
5.260,251200,8.360553,2.667141,3.964798,-0.085401,0.092462,-0.133364
5.280,251220,8.437167,3.021482,4.108450,-0.147887,0.093928,-0.109916
5.300,251240,8.719683,3.447650,4.247314,-0.137495,0.101389,-0.094461
5.320,251260,9.069236,3.711013,4.544195,-0.098591,0.115911,-0.116577
5.340,251280,9.097966,3.672705,4.908113,-0.084868,0.133631,-0.138694
5.360,251300,9.332599,3.653552,5.008670,-0.102455,0.118842,-0.129767
5.380,251320,9.720459,3.763685,5.008670,-0.137628,0.087933,-0.111781
5.400,251340,10.098742,3.964798,5.109226,-0.165340,0.055691,-0.135763
5.420,251360,10.314221,4.285621,5.295974,-0.174799,0.027712,-0.168804
5.440,251380,10.611102,4.438850,5.425261,-0.170669,0.023848,-0.167072
5.460,251400,10.295067,4.663905,5.468357,-0.175865,0.055158,-0.107518
5.480,251420,10.419566,4.649539,5.602432,-0.155747,0.018786,-0.094861
5.500,251440,10.481815,4.371812,5.525817,-0.174799,0.042368,-0.113779
5.520,251460,10.132261,4.587290,5.458780,-0.189855,0.002665,-0.097659
5.540,251480,10.309433,4.754885,5.746084,-0.246744,0.041568,-0.084069
5.560,251500,10.160992,4.568137,5.635951,-0.206775,0.061553,-0.063018
5.580,251520,9.734824,4.410120,5.334281,-0.141092,0.012391,-0.053959
5.600,251540,9.562442,4.280833,5.118803,-0.107384,-0.053426,0.001332
5.620,251560,9.284714,4.118027,4.797980,-0.084335,-0.072877,0.053292
5.640,251580,9.299079,3.687071,4.548983,-0.041701,-0.096060,0.059021
5.660,251600,9.375694,3.165135,4.185065,-0.036505,-0.103521,0.046897
5.680,251620,9.232041,2.810793,4.065354,-0.064617,-0.086467,0.068348
5.700,251640,9.572019,3.026271,4.127604,-0.125371,-0.114446,0.071545
5.720,251660,10.409989,3.155558,4.352659,-0.135230,-0.077008,0.038637
5.740,251680,10.457873,3.462016,4.405331,-0.086600,0.015588,-0.021450
5.760,251700,11.334151,3.854665,4.630386,0.017720,0.020118,-0.066616
5.780,251720,12.023681,3.845088,5.003881,0.115911,0.105119,-0.129900
5.800,251740,12.430696,3.835511,5.434838,0.141492,0.136162,-0.243680
5.820,251760,12.641385,4.266468,5.798757,0.127636,0.221430,-0.292975
5.840,251780,12.502522,4.817134,6.004658,0.146155,0.274323,-0.255671
5.860,251800,13.029245,5.128380,6.287174,0.123905,0.219565,-0.256470
5.880,251820,13.134590,5.439626,6.229713,0.071812,0.196516,-0.261266
5.900,251840,12.454638,5.679047,6.076484,0.063818,0.123905,-0.185724
5.920,251860,11.875240,5.257667,6.038177,0.112714,0.051560,-0.120841
5.940,251880,11.022904,4.721366,5.631162,0.098858,-0.000666,-0.069280
5.960,251900,10.563218,4.774038,5.209783,0.051294,-0.066882,0.062219
5.980,251920,10.041282,4.347870,5.114015,0.032642,-0.128302,0.133364
6.000,251940,10.132261,4.170700,4.802769,0.011058,-0.183326,0.073410
6.020,251960,9.797073,4.189853,4.429273,-0.001998,-0.151351,0.046098
6.040,251980,9.710882,4.055778,4.386178,0.023715,-0.150418,0.019985
6.060,252000,9.825804,3.888184,4.434062,-0.005196,-0.083669,-0.049695
6.080,252020,9.519346,4.156334,4.414908,-0.051694,-0.022783,-0.070746
6.100,252040,9.916783,4.261679,4.663905,-0.061286,-0.039836,-0.094061
6.120,252060,10.022128,4.170700,4.774038,-0.091930,0.002931,-0.144822
6.140,252080,9.643845,4.381389,4.726154,-0.141625,0.004530,-0.138294
6.160,252100,9.682152,4.707001,4.821922,-0.148020,-0.006395,-0.080072
6.180,252120,9.600749,4.951209,5.085284,-0.129900,-0.025580,-0.095660
6.200,252140,9.543288,5.104438,5.166687,-0.090997,-0.056623,-0.141092
6.220,252160,9.979033,5.511452,5.339070,-0.038904,-0.117110,-0.111115
6.240,252180,10.156203,5.238513,5.544971,0.034640,-0.099257,-0.055957
6.260,252200,9.643845,4.692636,5.444415,-0.021717,-0.105519,-0.023182
6.280,252220,9.404425,4.941632,5.176264,-0.124704,-0.162409,0.067548
6.300,252240,10.002975,5.535394,5.123591,-0.135896,-0.256337,0.190254
6.320,252260,9.634268,5.645528,5.099649,-0.053959,-0.245545,0.270326
6.340,252280,9.236830,5.272032,4.951209,0.030510,-0.268194,0.303501
6.360,252300,8.877700,4.668694,4.639963,0.077541,-0.217433,0.326949
6.380,252320,8.475474,3.964798,4.295198,0.072211,-0.146421,0.355194
6.400,252340,8.437167,3.433285,3.940856,0.028112,-0.123639,0.365587
6.420,252360,8.370130,3.136404,3.825934,-0.045165,-0.120441,0.305366
6.440,252380,8.599973,2.964022,3.691859,-0.102721,-0.105386,0.205576
6.460,252400,8.307879,2.762909,3.457227,-0.153216,-0.047963,0.127769
6.480,252420,7.953538,2.791639,3.313575,-0.192519,-0.011058,0.082204
6.500,252440,7.881712,3.189077,3.299210,-0.195317,0.003864,0.086201
6.520,252460,8.255207,3.452439,3.380613,-0.143357,0.020251,0.101256
6.540,252480,8.307879,3.270479,3.294421,-0.092196,0.054891,0.081538
6.560,252500,8.034941,2.940080,3.203442,-0.068348,0.035173,0.057822
6.580,252520,8.106767,2.724602,3.222595,-0.083936,-0.030510,0.063685
6.600,252540,8.030152,2.791639,3.236961,-0.100856,-0.040502,0.122173
6.620,252560,7.996634,2.916138,3.126827,-0.090997,-0.067681,0.207708
6.640,252580,7.819463,2.758120,3.184288,-0.069280,-0.066349,0.217833
6.660,252600,7.814674,2.466028,3.112462,-0.073677,-0.068481,0.163741
6.680,252620,8.154651,2.217031,2.983175,-0.119242,-0.056224,0.133897
6.700,252640,8.255207,2.212242,2.892196,-0.194917,-0.038504,0.114579
6.720,252660,8.073248,2.092532,2.825158,-0.237152,-0.026513,0.096193
6.740,252680,8.231265,2.245761,2.758120,-0.266596,-0.055025,0.081005
6.760,252700,8.015787,2.197877,2.940080,-0.251141,-0.035972,0.054891
6.780,252720,7.532158,2.126051,2.940080,-0.245812,-0.002798,0.018119
6.800,252740,7.489063,2.164358,2.877831,-0.223962,0.001332,-0.026247
6.820,252760,7.541735,2.092532,2.858677,-0.199047,0.054492,-0.055691
6.840,252780,7.790732,2.073379,2.849100,-0.157346,0.063685,-0.067815
6.860,252800,8.121132,2.001553,2.873042,-0.107917,0.047430,-0.059688
6.880,252820,8.236053,1.910573,2.896984,-0.088865,0.051294,-0.038104
6.900,252840,8.432379,1.920150,2.987964,-0.103654,0.030110,-0.023315
6.920,252860,8.465898,2.030283,3.098097,-0.121907,0.045565,-0.009060
6.940,252880,8.571242,2.193089,3.241749,-0.114579,0.061286,-0.004663
6.960,252900,8.619126,2.394202,3.356671,-0.088599,0.103254,-0.004663
6.980,252920,8.887277,2.533065,3.476381,-0.033308,0.126969,-0.006262
7.000,252940,9.318233,2.571373,3.648763,0.003864,0.139493,-0.000933
7.020,252960,9.471462,2.552219,3.773262,0.017187,0.155747,0.005063
7.040,252980,9.457097,2.561796,3.811569,0.015721,0.146155,-0.004263
7.060,253000,9.428367,2.528277,3.883395,0.017587,0.112714,-0.017187
7.080,253020,9.576807,2.494758,3.926491,0.014655,0.069413,-0.006395
7.100,253040,9.911995,2.461239,3.792415,0.012524,0.043300,0.031842
7.120,253060,9.959879,2.480393,3.797204,0.013057,0.023182,0.078873
7.140,253080,9.931149,2.437297,3.720589,0.030110,-0.048363,0.125237
7.160,253100,9.931149,2.403779,3.763685,0.011724,-0.074743,0.140159
7.180,253120,9.653421,2.389413,3.653552,-0.015588,-0.065417,0.129767
7.200,253140,9.552865,2.470816,3.639187,-0.064750,-0.065417,0.080472
7.220,253160,9.715671,2.652776,3.485958,-0.094594,-0.039170,0.026247
7.240,253180,9.926360,2.748544,3.481169,-0.088998,-0.023982,-0.001332
7.260,253200,9.974244,2.782062,3.375824,-0.048496,-0.028511,0.004796
7.280,253220,9.672575,2.820370,3.591303,-0.026113,-0.027179,0.009992
7.300,253240,9.519346,2.796427,3.734955,-0.009992,-0.022250,-0.001199
7.320,253260,9.380483,2.762909,3.883395,-0.024381,0.007594,-0.021983
7.340,253280,9.284714,2.695871,3.892972,-0.041035,0.027845,-0.058089
7.360,253300,9.457097,2.657564,3.869030,-0.064217,0.020118,-0.088332
7.380,253320,9.428367,2.700660,3.892972,-0.091130,0.032908,-0.091796
7.400,253340,9.385271,2.825158,3.897760,-0.109649,0.025047,-0.088599
7.420,253360,9.418790,2.940080,3.888184,-0.119908,0.026779,-0.087799
7.440,253380,9.528923,3.035848,3.797204,-0.106851,0.029711,-0.085934
7.460,253400,9.567230,3.040636,3.754108,-0.083136,0.022516,-0.081538
7.480,253420,9.619903,3.016694,3.768473,-0.058222,0.014789,-0.076342
7.500,253440,9.572019,2.983175,3.773262,-0.064084,0.004397,-0.067681
7.520,253460,9.428367,2.949656,3.792415,-0.071279,-0.003064,-0.060487
7.540,253480,9.433155,2.949656,3.825934,-0.074609,0.000000,-0.049029
7.560,253500,9.452309,2.968810,3.797204,-0.079006,0.002265,-0.032775
7.580,253520,9.466674,2.944868,3.782839,-0.077407,0.006528,-0.031043
7.600,253540,9.327810,2.964022,3.787627,-0.078340,0.011458,-0.039703
7.620,253560,9.251195,2.964022,3.845088,-0.086867,0.013989,-0.057556
7.640,253580,9.323022,2.916138,3.840300,-0.103387,0.022649,-0.083003
7.660,253600,9.538500,2.815581,3.763685,-0.118709,0.025980,-0.100190
7.680,253620,9.768343,2.767697,3.768473,-0.140292,0.007328,-0.110715
7.700,253640,10.146626,2.619257,3.663129,-0.181861,-0.005862,-0.108184
7.720,253660,10.266336,2.384625,3.529053,-0.269260,-0.027179,-0.090198
7.740,253680,10.271125,2.030283,3.351882,-0.343337,-0.055691,-0.052493
7.760,253700,10.002975,1.810017,3.193865,-0.427672,-0.086734,0.010259
7.780,253720,9.873688,1.920150,2.992752,-0.523865,-0.135496,0.056757
7.800,253740,9.624691,2.197877,2.782062,-0.555308,-0.156813,0.070879
7.820,253760,9.495404,2.418144,2.624045,-0.497885,-0.170936,0.071412
7.840,253780,9.260772,2.331953,2.432509,-0.389435,-0.152417,0.075009
7.860,253800,9.083601,2.178724,2.418144,-0.292043,-0.140559,0.081138
7.880,253820,8.729259,2.054225,2.413355,-0.211971,-0.108850,0.088998
7.900,253840,8.130709,1.905785,2.413355,-0.136828,-0.067548,0.096459
7.920,253860,7.546524,1.699883,2.533065,-0.100190,-0.020917,0.061686
7.940,253880,7.489063,1.537078,2.643199,-0.097392,-0.003997,-0.019185
7.960,253900,7.378930,1.517924,2.916138,-0.119242,0.059155,-0.092862
7.980,253920,6.804321,1.532289,3.150769,-0.166006,0.144689,-0.157613
8.000,253940,6.277597,1.407791,3.150769,-0.255804,0.219832,-0.230623
8.020,253960,5.621585,1.522712,2.983175,-0.377444,0.254605,-0.315758
8.040,253980,5.190629,2.063802,2.997540,-0.458982,0.266329,-0.416747
8.060,254000,5.664681,2.829947,3.160346,-0.416081,0.267662,-0.447257
8.080,254020,6.876147,3.031059,3.375824,-0.290711,0.282583,-0.391567
8.100,254040,7.666234,2.810793,3.404555,-0.186790,0.320821,-0.320021
8.120,254060,7.163452,2.523489,3.385401,-0.162409,0.340672,-0.257669
8.140,254080,6.651093,2.647987,3.754108,-0.147620,0.278853,-0.218233
8.160,254100,6.794744,2.892196,4.060566,-0.118576,0.273391,-0.207041
8.180,254120,7.292738,3.093309,4.165911,-0.080072,0.277920,-0.187856
8.200,254140,7.948750,2.806004,4.156334,-0.057956,0.245012,-0.168937
8.220,254160,8.054094,2.580950,4.074931,-0.101655,0.232089,-0.122972
8.240,254180,7.891289,2.671929,4.180276,-0.162809,0.213170,-0.082337
8.260,254200,7.838616,3.179500,4.467580,-0.203178,0.245678,-0.121374
8.280,254220,8.020576,3.385401,4.936844,-0.191986,0.320155,-0.234221
8.300,254240,8.614338,3.217807,5.185841,-0.214369,0.361323,-0.340139
8.320,254260,9.346964,3.327940,5.291186,-0.282717,0.343737,-0.282317
8.340,254280,9.418790,3.792415,5.343858,-0.336542,0.309096,-0.128568
8.360,254300,9.232041,4.285621,5.712565,-0.255538,0.247943,-0.021184
8.380,254320,9.753978,4.084508,6.076484,-0.113646,0.151750,-0.057556
8.400,254340,10.026917,3.921702,6.038177,-0.083536,0.152283,-0.083003
8.420,254360,9.552865,4.165911,6.133945,-0.123239,0.141758,-0.040502
8.440,254380,9.586384,4.563348,6.411672,-0.118576,0.100590,-0.020917
8.460,254400,9.959879,4.678270,6.344635,-0.054225,0.096326,-0.003997
8.480,254420,9.844957,4.759673,6.086061,0.011858,0.067015,0.033708
8.500,254440,9.686940,4.668694,6.325481,0.090331,0.013723,0.020784
8.520,254460,9.509769,4.266468,6.531382,0.129501,0.026247,-0.002931
8.540,254480,9.370906,4.098873,6.368577,0.048363,0.019452,0.053159
8.560,254500,9.337387,4.180276,6.028600,-0.046764,-0.028378,0.134430
8.580,254520,9.174581,4.180276,5.731719,-0.055291,-0.075409,0.171469
8.600,254540,9.184157,3.955221,5.568913,-0.024914,-0.116044,0.141225
8.620,254560,9.351752,3.778050,5.525817,-0.016787,-0.110982,0.115378
8.640,254580,9.337387,3.643975,5.449203,-0.031043,-0.143224,0.121640
8.660,254600,9.519346,3.663129,5.434838,-0.046364,-0.183593,0.113380
8.680,254620,9.284714,3.715801,5.492299,-0.067415,-0.164541,0.072744
8.700,254640,9.088389,3.897760,5.650316,-0.073544,-0.088732,0.040103
8.720,254660,9.332599,4.520253,5.861006,-0.064484,-0.019718,0.026247
8.740,254680,9.950302,4.414908,6.210559,0.004930,0.065283,-0.026113
8.760,254700,9.672575,4.276044,5.975927,-0.033708,0.170003,-0.097392
8.780,254720,9.490616,4.347870,5.698200,0.013989,0.193185,-0.005729
8.800,254740,10.486604,3.835511,5.961562,0.103254,0.185325,0.014922
8.820,254760,11.238382,3.490746,6.038177,0.072345,0.173201,-0.100590
8.840,254780,11.013328,3.576937,5.956774,0.006928,0.178263,-0.150818
8.860,254800,11.224017,3.754108,5.923255,0.019319,0.129767,-0.112447
8.880,254820,12.052411,3.902549,5.913678,0.041435,0.054492,-0.091796
8.900,254840,12.421119,3.960010,5.693412,0.023848,-0.006795,-0.097659
8.920,254860,11.899182,4.046201,5.789180,0.015588,-0.055557,-0.125770
8.940,254880,11.616667,3.988740,6.062119,0.028778,-0.021850,-0.137095
8.960,254900,11.903971,4.055778,6.177041,-0.032642,0.026247,-0.096593
8.980,254920,12.210428,4.395754,6.296751,-0.136429,0.024781,-0.016521
9.000,254940,12.023681,5.013458,6.416461,-0.207441,-0.043433,0.125637
9.020,254960,11.717223,5.185841,6.497863,-0.169070,-0.111781,0.240882
9.040,254980,10.965444,5.114015,6.349423,-0.104054,-0.142158,0.309763
9.060,255000,10.548853,4.678270,6.167464,-0.086201,-0.146688,0.275922
9.080,255020,10.146626,4.127604,5.655105,-0.051427,-0.118576,0.217034
9.100,255040,9.385271,3.725378,5.430049,-0.017720,-0.103521,0.157346
9.120,255060,9.016563,3.596091,5.238513,0.044100,-0.086467,0.100723
9.140,255080,9.471462,3.366248,5.291186,0.067282,-0.059688,0.007461
9.160,255100,9.476251,3.380613,5.343858,0.041035,0.011191,-0.068081
9.180,255120,9.437943,3.715801,5.525817,0.041168,0.044766,-0.105652
9.200,255140,9.993398,3.888184,5.770026,0.066482,0.056224,-0.150018
9.220,255160,10.357317,4.003105,5.894525,0.071279,0.082204,-0.227692
9.240,255180,10.242394,4.458004,6.119579,0.041168,0.056890,-0.255671
9.260,255200,10.414778,4.869806,6.373365,0.034773,0.027712,-0.245145
9.280,255220,10.654198,5.200206,6.517017,0.024781,0.017187,-0.191853
9.300,255240,10.515334,5.382165,6.746861,0.008127,-0.024648,-0.125104
9.320,255260,10.338163,5.746084,7.053318,-0.020384,-0.041968,-0.072611
9.340,255280,10.582372,6.110003,7.220912,-0.006528,-0.095660,-0.020651
9.360,255300,10.730812,6.177041,7.220912,0.010259,-0.161343,0.069147
9.380,255320,10.817003,5.674258,6.938396,0.009193,-0.317490,0.202911
9.400,255340,10.204087,5.401319,6.239290,-0.050495,-0.500816,0.361989
9.420,255360,9.131485,5.257667,5.516241,-0.047430,-0.656164,0.463645
9.440,255380,7.929596,4.745308,5.051765,0.067815,-0.644306,0.462446
9.460,255400,7.177817,3.797204,4.783615,0.120841,-0.517603,0.414749
9.480,255420,7.043741,3.093309,4.414908,0.049162,-0.364920,0.373181
9.500,255440,7.819463,2.825158,3.955221,-0.046364,-0.324018,0.354528
9.520,255460,7.694964,3.078943,3.763685,-0.125904,-0.277121,0.434334
9.540,255480,6.991069,3.155558,3.701436,-0.092329,-0.320021,0.485228
9.560,255500,6.694188,2.973598,3.519476,0.005729,-0.323885,0.425807
9.580,255520,6.387730,2.336741,3.275268,0.075276,-0.281118,0.313760
9.600,255540,6.387730,1.628057,3.021482,0.077141,-0.271259,0.218632
9.620,255560,6.655881,1.470040,2.839523,-0.016787,-0.263531,0.175332
9.640,255580,6.904878,1.651999,2.801216,-0.088066,-0.253006,0.166139
9.660,255600,6.694188,1.896208,2.815581,-0.119775,-0.171469,0.175332
9.680,255620,6.454768,1.982399,2.691083,-0.107251,-0.118176,0.194251
9.700,255640,6.512228,1.948880,2.738967,-0.098325,-0.083936,0.165873
9.720,255660,6.981492,1.795651,2.667141,-0.092329,-0.078606,0.087400
9.740,255680,7.388506,1.766921,2.643199,-0.101522,-0.050495,0.023049
9.760,255700,7.532158,1.719037,2.647987,-0.126170,-0.019985,-0.027579
9.780,255720,7.671022,1.723825,2.614468,-0.141092,0.017587,-0.053026
9.800,255740,7.503428,1.647211,2.609680,-0.143224,0.093928,-0.050761
9.820,255760,7.436390,1.628057,2.600103,-0.164407,0.135230,-0.045832
9.840,255780,7.714118,1.666364,2.643199,-0.154548,0.129634,-0.036639
9.860,255800,7.910442,1.709460,2.614468,-0.128302,0.147354,-0.027979
9.880,255820,8.279149,1.881842,2.719813,-0.089398,0.139760,-0.019319
9.900,255840,8.628703,1.920150,2.786851,-0.013323,0.152550,-0.018652
9.920,255860,8.892065,1.776498,2.954445,0.030110,0.160544,-0.009992
9.940,255880,9.179369,1.575385,3.055001,0.051827,0.147221,0.001199
9.960,255900,9.198523,1.470040,3.059790,0.040369,0.117110,0.009326
9.980,255920,9.179369,1.498770,3.270479,-0.000799,0.076741,0.000266
10.000,255940,9.179369,1.584962,3.366248,-0.037571,0.088732,-0.023049
10.020,255960,9.126697,1.709460,3.514688,-0.085401,0.124038,-0.054225
10.040,255980,9.217676,1.833959,3.663129,-0.113513,0.166539,-0.072345
10.060,256000,9.385271,1.934515,3.691859,-0.105386,0.207974,-0.069014
10.080,256020,9.782708,2.087744,3.758897,-0.078340,0.203977,-0.065150
10.100,256040,10.376471,2.159570,3.782839,-0.052360,0.169337,-0.064084
10.120,256060,10.692505,2.164358,3.811569,-0.041701,0.114979,-0.061953
10.140,256080,10.548853,2.116474,3.878607,-0.040502,0.063951,-0.045832
10.160,256100,10.256760,2.106898,3.916914,-0.054358,0.024248,-0.037704
10.180,256120,10.041282,2.097321,3.835511,-0.060753,-0.011591,-0.032508
10.200,256140,9.777920,2.097321,3.720589,-0.074210,-0.029444,-0.016254
10.220,256160,9.797073,2.164358,3.620033,-0.077940,-0.066216,0.004397
10.240,256180,9.825804,2.231396,3.629610,-0.077008,-0.060887,0.027046
10.260,256200,9.864111,2.231396,3.734955,-0.085268,-0.077674,0.035173
10.280,256220,9.825804,2.298434,3.835511,-0.103920,-0.065417,0.036905
10.300,256240,9.849746,2.355895,3.983952,-0.075809,-0.043966,0.025181
10.320,256260,9.787497,2.317587,3.960010,-0.133364,-0.048896,0.021717
10.340,256280,9.902418,2.394202,3.878607,-0.156547,-0.080205,0.040369
10.360,256300,9.878476,2.528277,3.816358,-0.150285,-0.073810,0.085934
10.380,256320,9.624691,2.691083,3.830723,-0.132299,-0.084735,0.098458
10.400,256340,9.509769,2.762909,3.950433,-0.077807,-0.110449,0.031176
10.420,256360,9.136273,2.681506,4.036624,-0.023315,-0.085934,-0.059554
10.440,256380,9.006987,2.686294,4.118027,-0.001466,-0.037038,-0.078740
10.460,256400,9.265560,2.595315,3.998317,0.014655,0.016787,-0.039703
10.480,256420,9.476251,2.475605,3.916914,0.020518,0.054358,-0.015188
10.500,256440,9.552865,2.341529,3.912126,0.001732,0.050495,0.002132
10.520,256460,9.639056,2.255338,4.017470,-0.034240,0.018652,0.008926
10.540,256480,9.686940,2.193089,4.084508,-0.064351,-0.011191,-0.022383
10.560,256500,9.706094,2.111686,4.089296,-0.098058,-0.024914,-0.050361
10.580,256520,9.576807,2.183512,4.041412,-0.138960,-0.023582,-0.062619
10.600,256540,9.509769,2.346318,3.983952,-0.162009,-0.025314,-0.073011
10.620,256560,9.509769,2.494758,3.869030,-0.165340,-0.012124,-0.088199
10.640,256580,9.533711,2.504335,3.792415,-0.154015,0.000000,-0.111381
10.660,256600,9.581595,2.489970,3.672705,-0.145622,0.000666,-0.124172
10.680,256620,9.653421,2.418144,3.572149,-0.135896,-0.017986,-0.131632
10.700,256640,9.768343,2.375048,3.572149,-0.124305,-0.031043,-0.136296
10.720,256660,9.806650,2.384625,3.576937,-0.135763,-0.035839,-0.134697
10.740,256680,9.821015,2.403779,3.600879,-0.149086,-0.031975,-0.141758
10.760,256700,9.773131,2.413355,3.643975,-0.165074,-0.006795,-0.155348
10.780,256720,9.821015,2.442086,3.548207,-0.168404,0.022783,-0.161077
10.800,256740,9.792285,2.600103,3.576937,-0.185058,0.057156,-0.158012
10.820,256760,9.777920,2.748544,3.620033,-0.175466,0.083536,-0.146688
10.840,256780,9.940725,2.877831,3.610456,-0.141891,0.064617,-0.120708
10.860,256800,9.801862,2.987964,3.711013,-0.129501,0.069680,-0.111781
10.880,256820,9.361329,2.825158,3.734955,-0.136695,0.060620,-0.124571
10.900,256840,8.523358,2.475605,3.385401,-0.150018,0.061686,-0.103654
10.920,256860,7.627927,2.274492,3.280056,-0.194917,0.042101,-0.064217
10.940,256880,7.129933,2.226608,3.222595,-0.236619,0.013989,-0.036239
10.960,256900,7.153875,2.312799,3.246537,-0.251008,-0.025714,-0.045299
10.980,256920,8.039729,2.466028,3.313575,-0.228891,-0.093662,-0.082337
11.000,256940,8.336611,2.566584,3.227384,-0.177331,-0.038104,-0.090198
11.020,256960,7.316680,2.427721,3.107674,-0.131632,0.013190,-0.075542
11.040,256980,6.464345,2.365471,3.193865,-0.116444,-0.002665,-0.102588
11.060,257000,6.555324,2.398990,3.265691,-0.101123,-0.019319,-0.141492
11.080,257020,6.924031,2.523489,3.514688,-0.094194,-0.001066,-0.150685
11.100,257040,7.029376,2.480393,3.610456,-0.087533,0.020251,-0.158012
11.120,257060,6.761226,2.336741,3.591303,-0.106851,0.035440,-0.165074
11.140,257080,7.149086,2.346318,3.519476,-0.134963,-0.043167,-0.168005
11.160,257100,7.709330,2.504335,3.366248,-0.166806,-0.073410,-0.159345
11.180,257120,7.982268,2.561796,3.232172,-0.157746,-0.077407,-0.121374
11.200,257140,8.092402,2.691083,3.169923,-0.125371,-0.122440,-0.098591
11.220,257160,8.461109,2.767697,3.174711,-0.115778,-0.181194,-0.059155
11.240,257180,8.796297,2.691083,3.136404,-0.088332,-0.234087,0.009459
11.260,257200,8.374918,2.590526,3.088520,-0.081937,-0.244613,0.080738
11.280,257220,8.202535,2.513912,3.236961,-0.094594,-0.288046,0.103654
11.300,257240,8.523358,2.643199,3.303998,-0.112714,-0.294041,0.076741
11.320,257260,8.628703,2.801216,3.725378,-0.077541,-0.209573,0.050228
11.340,257280,9.059659,3.045424,4.122815,-0.074876,-0.145222,0.036239
11.360,257300,9.217676,3.098097,4.486734,-0.071412,-0.054625,-0.017587
11.380,257320,9.184157,2.964022,4.414908,-0.081804,-0.008394,-0.109383
11.400,257340,9.701305,2.667141,3.897760,-0.135496,-0.030776,-0.109783
11.420,257360,9.591172,2.676718,3.600879,-0.189721,-0.058888,-0.030910
11.440,257380,9.715671,2.753332,3.634398,-0.231822,-0.111781,0.022116
11.460,257400,9.878476,2.839523,3.567361,-0.219698,-0.088466,0.025181
11.480,257420,9.739613,2.949656,3.418920,-0.227559,-0.057689,0.002931
11.500,257440,9.490616,3.284845,3.476381,-0.239417,-0.036106,-0.050894
11.520,257460,9.931149,3.404555,3.581726,-0.215302,-0.032908,-0.126170
11.540,257480,10.223241,3.299210,3.457227,-0.203311,-0.021583,-0.146421
11.560,257500,10.390836,3.323152,3.471592,-0.244746,-0.020651,-0.155481
11.580,257520,9.868899,3.485958,3.797204,-0.275389,0.045698,-0.168271
11.600,257540,9.959879,3.682282,4.065354,-0.285248,0.064351,-0.183859
11.620,257560,10.338163,3.768473,4.022259,-0.278720,0.075942,-0.152017
11.640,257580,10.510546,3.897760,4.228160,-0.237551,0.036106,-0.124571
11.660,257600,10.089166,4.127604,4.376601,-0.198381,0.067681,-0.089265
11.680,257620,9.792285,4.271256,4.505888,-0.128701,0.092729,-0.086067
11.700,257640,9.758766,4.108450,4.481946,-0.081671,0.081005,-0.165074
11.720,257660,9.797073,4.031836,4.381389,-0.094328,0.027312,-0.226626
11.740,257680,9.916783,3.730166,4.242526,-0.114446,-0.035706,-0.154415
11.760,257700,9.931149,3.471592,4.223372,-0.146821,-0.060087,-0.033441
11.780,257720,9.854534,3.562572,4.256891,-0.182527,-0.069946,0.011724
11.800,257740,10.093954,4.089296,3.945644,-0.148153,-0.097392,0.010525
11.820,257760,10.467450,4.022259,3.859453,-0.005329,-0.100856,-0.009060
11.840,257780,10.884041,3.768473,4.084508,0.046231,-0.033041,-0.090864
11.860,257800,11.401189,3.916914,4.295198,0.065417,0.040902,-0.139893
11.880,257820,11.473015,4.094085,4.501099,0.073144,0.108583,-0.152283
11.900,257840,12.253524,4.386178,4.443638,0.052227,0.159611,-0.167205
11.920,257860,13.034034,4.577713,4.644751,0.102721,0.209573,-0.137228
11.940,257880,13.034034,4.687847,4.908113,0.090997,0.330813,-0.074609
11.960,257900,12.804191,4.735731,5.377377,0.100856,0.397962,-0.087933
11.980,257920,12.938266,4.888960,5.631162,0.126436,0.398628,-0.100323
12.000,257940,13.192051,5.013458,5.693412,0.157746,0.331080,-0.116711
12.020,257960,12.665327,4.908113,5.664681,0.182127,0.249276,-0.212104
12.040,257980,11.482592,4.893748,5.214571,0.213570,0.240882,-0.221297
12.060,258000,10.802638,4.639963,4.922479,0.236219,0.206908,-0.157613
12.080,258020,10.726024,4.381389,4.716578,0.203178,0.151484,-0.193851
12.100,258040,10.390836,4.520253,4.477157,0.150285,0.166806,-0.188655
12.120,258060,9.897630,4.520253,4.563348,0.128701,0.174266,-0.082737
12.140,258080,9.998186,4.496311,4.606444,0.100456,0.144156,-0.034240
12.160,258100,10.141838,4.673482,4.491522,0.053825,0.133231,-0.033708
12.180,258120,10.002975,4.874595,4.299986,0.066482,0.115511,0.033308
12.200,258140,9.916783,4.845864,4.534618,0.135363,0.124172,0.128568
12.220,258160,9.945514,4.596867,4.726154,0.141225,0.177331,0.188389
12.240,258180,10.160992,4.414908,4.936844,0.127236,0.197049,0.198515
12.260,258200,10.299856,4.357447,5.109226,0.073677,0.219432,0.195717
12.280,258220,10.395624,4.510676,5.123591,0.055957,0.171335,0.185591
12.300,258240,10.223241,4.807557,5.104438,0.058355,0.128968,0.182527
12.320,258260,10.319010,4.903325,5.386954,0.133364,0.076608,0.165473
12.340,258280,10.285490,4.625597,5.621585,0.192119,0.044499,0.111515
12.360,258300,10.319010,4.376601,5.568913,0.203844,-0.034107,0.025714
12.380,258320,10.084377,4.405331,5.243302,0.190121,-0.144156,0.031975
12.400,258340,9.864111,4.491522,5.075707,0.224495,-0.316691,0.074077
12.420,258360,9.619903,4.242526,5.118803,0.248077,-0.407821,0.051960
12.440,258380,9.188946,3.873818,4.778827,0.183992,-0.418746,0.009992
12.460,258400,8.762778,3.801992,4.491522,0.112980,-0.473770,-0.003597
12.480,258420,8.422802,3.572149,4.084508,0.001066,-0.390368,0.006928
12.500,258440,8.461109,3.059790,3.873818,-0.053159,-0.383573,0.026247
12.520,258460,8.485051,2.954445,3.706224,-0.168937,-0.341072,0.080205
12.540,258480,8.767567,3.442862,3.533842,-0.280585,-0.220897,0.206775
12.560,258500,9.054871,3.371036,3.327940,-0.272191,-0.176531,0.321354
12.580,258520,8.815451,3.213019,3.016694,-0.244080,-0.155348,0.367985
12.600,258540,8.307879,3.270479,3.260903,-0.239417,-0.192253,0.371449
12.620,258560,7.833828,3.332729,3.581726,-0.212237,-0.137628,0.300436
12.640,258580,7.623138,3.500323,3.667917,-0.168804,-0.136296,0.155348
12.660,258600,7.848193,3.754108,3.610456,-0.163874,-0.104187,0.029844
12.680,258620,8.178593,3.778050,3.438074,-0.123639,-0.120708,-0.022383
12.700,258640,7.809886,3.576937,3.088520,-0.126969,-0.048230,0.022649
12.720,258660,7.163452,3.481169,2.992752,-0.148686,-0.002132,0.134963
12.740,258680,6.684611,3.294421,2.877831,-0.144689,0.049429,0.229557
12.760,258700,6.598420,3.059790,2.700660,-0.156680,0.100989,0.258069
12.780,258720,6.751649,2.978387,2.600103,-0.156813,0.133098,0.266196
12.800,258740,7.024588,2.777274,2.695871,-0.123639,0.189588,0.285381
12.820,258760,6.703765,2.346318,2.475605,-0.063951,0.285781,0.339473
12.840,258780,6.349423,1.905785,2.475605,-0.066616,0.295507,0.362789
12.860,258800,6.789956,1.575385,2.322376,-0.056623,0.193718,0.335743
12.880,258820,7.527370,1.470040,2.360683,-0.102455,0.103254,0.299371
12.900,258840,8.020576,1.335965,2.427721,-0.110182,0.036239,0.289112
12.920,258860,8.384495,1.479617,2.600103,-0.131899,0.028778,0.295907
12.940,258880,8.489840,1.532289,2.782062,-0.125770,0.071678,0.288046
12.960,258900,8.681376,1.326388,2.834735,-0.109516,0.084202,0.256204
12.980,258920,9.327810,1.292869,2.825158,-0.125504,0.040369,0.229957
13.000,258940,9.753978,1.312023,2.964022,-0.107784,0.027712,0.236619
13.020,258960,9.959879,1.584962,3.313575,-0.090997,-0.018253,0.208240
13.040,258980,9.940725,1.786075,3.586514,-0.091130,-0.009992,0.128835
13.060,259000,9.595961,1.877054,3.725378,-0.070346,0.011191,0.028378
13.080,259020,9.447520,1.838747,3.787627,-0.028378,-0.007861,-0.030243
13.100,259040,9.744401,2.126051,3.845088,0.017587,-0.022250,-0.006395
13.120,259060,10.022128,2.217031,3.916914,0.093262,-0.054891,0.067681
13.140,259080,10.151415,2.092532,3.979163,0.136695,-0.075809,0.135496
13.160,259100,10.070012,2.049437,3.859453,0.153749,-0.108850,0.246611
13.180,259120,10.070012,2.015918,3.787627,0.163608,-0.229957,0.392899
13.200,259140,10.237606,1.853112,3.734955,0.158412,-0.349066,0.482430
13.220,259160,9.883265,1.623269,3.648763,0.125637,-0.402092,0.458582
13.240,259180,9.557653,1.211466,3.529053,0.100590,-0.399294,0.367452
13.260,259200,9.442732,1.000776,3.327940,0.037038,-0.344669,0.235686
13.280,259220,9.610326,1.015141,3.055001,-0.045565,-0.236485,0.092063
13.300,259240,9.911995,1.187524,2.767697,-0.116577,-0.119109,-0.012391
13.320,259260,10.108319,1.278504,2.576161,-0.190121,-0.035440,-0.099124
13.340,259280,9.935937,1.474828,2.523489,-0.235553,0.026779,-0.160544
13.360,259300,9.701305,1.896208,2.624045,-0.260600,0.068614,-0.149619
13.380,259320,9.768343,2.298434,2.700660,-0.238617,0.095127,-0.047564
13.400,259340,10.079589,2.523489,2.868254,-0.184925,0.084202,0.057689
13.420,259360,9.926360,2.379837,3.145981,-0.121907,0.074077,0.104054
13.440,259380,9.811439,2.164358,3.318364,-0.090597,0.045032,0.103521
13.460,259400,9.998186,1.953669,3.260903,-0.074609,0.023449,0.086867
13.480,259420,10.223241,1.546654,3.174711,-0.068881,-0.002132,0.030510
13.500,259440,10.242394,1.144428,3.193865,-0.106185,-0.032375,-0.024115
13.520,259460,10.103531,1.039083,3.169923,-0.207175,-0.053959,-0.066482
13.540,259480,10.122684,1.302446,3.131616,-0.301902,-0.059954,-0.094328
13.560,259500,10.026917,1.651999,3.069367,-0.334277,-0.020518,-0.091263
13.580,259520,9.974244,1.905785,2.920926,-0.315758,0.019585,-0.055557
13.600,259540,10.151415,1.934515,2.853889,-0.271792,0.026247,-0.001599
13.620,259560,10.141838,1.886631,2.863465,-0.235953,0.035972,0.053559
13.640,259580,10.007763,1.723825,2.935291,-0.197848,0.020917,0.097925
13.660,259600,9.950302,1.465251,3.040636,-0.168404,0.018786,0.108450
13.680,259620,9.777920,1.154005,3.093309,-0.176398,0.024781,0.087266
13.700,259640,9.677363,1.005565,3.040636,-0.218100,0.017453,0.049296
13.720,259660,9.634268,1.086968,3.016694,-0.257802,0.009992,0.002931
13.740,259680,9.591172,1.163582,2.978387,-0.267129,0.020251,-0.061153
13.760,259700,9.720459,1.441309,2.906561,-0.258469,0.018786,-0.111648
13.780,259720,9.490616,1.719037,2.949656,-0.232755,0.063418,-0.156014
13.800,259740,9.318233,1.982399,3.031059,-0.176531,0.113247,-0.218233
13.820,259760,9.471462,2.135628,3.203442,-0.097126,0.171469,-0.264864
13.840,259780,9.801862,2.202666,3.366248,0.017720,0.209440,-0.253539
13.860,259800,10.012551,2.236184,3.538630,0.082070,0.218899,-0.208640
13.880,259820,9.931149,2.126051,3.845088,0.128435,0.203444,-0.195850
13.900,259840,9.629479,1.991976,4.084508,0.111515,0.181727,-0.235020
13.920,259860,9.390059,1.814805,4.108450,0.043433,0.162142,-0.288845
13.940,259880,9.332599,1.814805,3.897760,-0.062219,0.134564,-0.325084
13.960,259900,9.198523,2.039860,3.615245,-0.160943,0.118975,-0.336009
13.980,259920,9.016563,2.250550,3.371036,-0.211438,0.078873,-0.324951
14.000,259940,8.949526,2.284068,3.083732,-0.210372,0.043833,-0.303101
14.020,259960,8.547300,2.298434,2.978387,-0.203444,0.044499,-0.279519
14.040,259980,8.010999,2.154782,2.911349,-0.187989,0.043300,-0.264198
14.060,260000,7.532158,1.929727,2.882619,-0.190254,0.078873,-0.272724
14.080,260020,7.776367,1.690306,2.973598,-0.212904,0.076741,-0.302035
14.100,260040,8.044518,1.470040,2.868254,-0.267662,0.094461,-0.286447
14.120,260060,7.699753,1.584962,2.734178,-0.332678,0.091663,-0.248210
14.140,260080,7.163452,1.910573,3.031059,-0.364787,0.076608,-0.256737
14.160,260100,6.718130,2.126051,3.270479,-0.352530,0.119908,-0.310695
14.180,260120,6.876147,2.154782,3.361459,-0.321487,0.168138,-0.351331
14.200,260140,8.082825,2.288857,3.318364,-0.301902,0.141492,-0.349865
14.220,260160,8.973468,2.604892,3.404555,-0.321753,0.132698,-0.344536
14.240,260180,8.748413,2.791639,3.610456,-0.302835,0.168138,-0.377178
14.260,260200,8.140285,2.954445,3.682282,-0.248476,0.195583,-0.404357
14.280,260220,7.838616,3.040636,3.720589,-0.243813,0.233954,-0.392233
14.300,260240,8.360553,3.126827,3.711013,-0.217034,0.191054,-0.348666
14.320,260260,8.734048,2.949656,3.696647,-0.189988,0.173334,-0.284049
14.340,260280,8.930372,2.710236,3.596091,-0.168404,0.088466,-0.206508
14.360,260300,8.757990,2.643199,3.495534,-0.156280,0.022916,-0.153482
14.380,260320,8.729259,2.489970,3.462016,-0.101922,-0.028378,-0.111381
14.400,260340,8.408437,2.212242,3.308787,-0.075942,-0.008926,-0.040369
14.420,260360,8.288726,2.030283,3.179500,-0.081271,-0.013723,0.045032
14.440,260380,8.394072,1.987187,3.270479,-0.090597,-0.029044,0.092329
14.460,260400,8.667010,2.092532,3.356671,-0.083403,-0.039969,0.101789
14.480,260420,8.743625,2.202666,3.462016,-0.070213,-0.038504,0.084335
14.500,260440,8.868123,2.351106,3.711013,-0.081538,-0.038904,-0.020118
14.520,260460,9.030929,2.580950,3.816358,-0.086734,0.005063,-0.129634
14.540,260480,9.160215,3.026271,3.993528,-0.099257,0.031443,-0.180395
14.560,260500,9.629479,3.485958,4.266468,-0.092329,0.052093,-0.227559
14.580,260520,10.280702,3.643975,4.539406,-0.060620,0.121240,-0.238750
14.600,260540,10.002975,3.773262,4.730943,-0.077674,0.194784,-0.210772
14.620,260560,9.854534,3.926491,5.008670,-0.111381,0.204510,-0.226360
14.640,260580,9.715671,4.213795,5.137957,-0.113779,0.205309,-0.221430
14.660,260600,9.543288,4.252102,5.319916,-0.106185,0.195317,-0.212770
14.680,260620,9.864111,4.462792,5.324705,-0.080871,0.160677,-0.196649
14.700,260640,9.988609,4.855441,5.391742,-0.080472,0.160810,-0.166539
14.720,260660,9.725247,4.975151,5.497087,-0.039703,0.138028,-0.110982
14.740,260680,9.514558,4.783615,5.377377,-0.007994,0.070613,-0.078473
14.760,260700,9.734824,4.472369,5.070919,-0.024781,-0.006262,-0.090730
14.780,260720,9.998186,4.328717,4.606444,-0.064617,-0.060887,-0.117643
14.800,260740,10.031705,4.821922,4.395754,-0.136429,-0.086201,-0.092995
14.820,260760,10.481815,4.888960,4.726154,-0.066482,-0.067548,-0.053026
14.840,260780,10.773908,4.692636,4.999093,-0.045299,0.012391,0.005729
14.860,260800,11.061212,4.735731,5.439626,-0.027979,0.052493,0.032508
14.880,260820,11.319786,5.042189,5.741296,0.032775,0.096326,0.008394
14.900,260840,11.487380,5.300763,5.961562,0.072877,0.147887,-0.049828
14.920,260860,11.439496,5.439626,6.167464,0.048629,0.185325,-0.143090
14.940,260880,11.405977,5.635951,6.536170,0.040369,0.217167,-0.173334
14.960,260900,11.774684,5.640739,6.636727,0.061819,0.249009,-0.094994
14.980,260920,12.162544,5.473145,6.406884,0.112980,0.238217,0.029044
15.000,260940,11.712435,5.137957,6.378153,0.194118,0.162409,0.160943
15.020,260960,11.755530,4.687847,6.416461,0.216101,0.016121,0.212104
15.040,260980,11.999739,4.347870,6.287174,0.190121,-0.048896,0.170936
15.060,261000,11.104307,4.170700,6.028600,0.147753,-0.028112,0.155747
15.080,261020,10.520123,4.055778,5.741296,0.112314,-0.044766,0.158945
15.100,261040,10.658986,3.864242,5.449203,0.098991,-0.061686,0.144156
15.120,261060,10.793061,3.763685,5.372589,0.081271,-0.079139,0.126303
15.140,261080,10.635044,3.873818,5.248090,0.072744,-0.115645,0.136828
15.160,261100,10.587160,3.615245,5.094861,0.092329,-0.156147,0.146155
15.180,261120,10.007763,3.385401,4.865018,0.063152,-0.170403,0.131366
15.200,261140,9.720459,3.466804,4.730943,0.035573,-0.209173,0.107384
15.220,261160,10.050858,3.505111,4.491522,0.012657,-0.192786,0.079939
15.240,261180,10.232818,3.543418,4.371812,0.015455,-0.192652,0.035706
15.260,261200,10.256760,3.667917,4.323928,0.003464,-0.213303,-0.000533
15.280,261220,9.792285,3.658340,4.328717,-0.009726,-0.180395,0.002132
15.300,261240,9.519346,4.007894,4.290410,-0.036106,-0.164274,0.018652
15.320,261260,9.653421,4.276044,4.462792,-0.010259,-0.094061,0.047164
15.340,261280,10.093954,4.276044,4.553771,-0.004663,-0.038904,0.042767
15.360,261300,10.424355,4.252102,4.750096,-0.014922,-0.017853,0.009459
15.380,261320,10.433931,4.352659,4.994305,-0.051161,-0.016121,-0.020118
15.400,261340,10.419566,4.683059,5.051765,-0.070213,-0.031709,-0.008394
15.420,261360,10.280702,4.759673,4.936844,-0.039969,-0.023315,0.081005
15.440,261380,9.533711,4.611232,4.654328,-0.015855,-0.023982,0.194651
15.460,261400,8.887277,4.323928,4.381389,-0.004263,-0.064750,0.236485
15.480,261420,8.528147,3.873818,4.165911,0.022116,-0.083403,0.220364
15.500,261440,8.001422,3.596091,3.787627,0.019851,-0.091663,0.210106
15.520,261460,7.426814,3.423708,3.677494,0.038504,-0.077674,0.200779
15.540,261480,6.636727,3.145981,3.663129,0.064484,0.016787,0.217833
15.560,261500,6.287174,2.738967,3.653552,0.063951,0.110449,0.236352
15.580,261520,6.665458,2.394202,3.552995,0.018119,0.136296,0.224095
15.600,261540,7.000646,2.183512,3.476381,-0.047031,0.132432,0.164407
15.620,261560,7.316680,2.073379,3.347094,-0.101789,0.078740,0.075276
15.640,261580,7.982268,2.236184,3.069367,-0.137495,-0.010126,0.050361
15.660,261600,9.126697,2.140416,2.906561,-0.122440,-0.099124,0.100856
15.680,261620,8.312668,2.121263,3.050213,-0.092596,-0.036106,0.184392
15.700,261640,7.848193,2.413355,3.854665,-0.135363,-0.088199,0.106319
15.720,261660,8.312668,2.595315,4.266468,-0.191187,-0.018386,-0.023449
15.740,261680,7.307104,2.346318,3.969586,-0.281251,0.098591,-0.047164
15.760,261700,6.780379,2.533065,3.864242,-0.393965,0.013456,-0.045565
15.780,261720,7.479486,3.021482,3.912126,-0.422743,-0.104320,-0.035573
15.800,261740,8.829816,3.462016,3.840300,-0.354262,-0.132698,-0.027312
15.820,261760,9.370906,3.452439,3.734955,-0.235819,-0.112847,-0.013190
15.840,261780,8.791509,3.227384,3.682282,-0.159611,-0.112181,-0.047963
15.860,261800,8.327033,2.868254,3.691859,-0.121907,-0.112714,-0.127236
15.880,261820,8.130709,2.657564,3.543418,-0.137361,-0.072211,-0.205043
15.900,261840,8.231265,2.691083,3.433285,-0.154548,-0.010658,-0.211971
15.920,261860,8.647857,2.839523,3.385401,-0.158412,0.050361,-0.159478
15.940,261880,8.614338,2.992752,3.428497,-0.146421,0.154815,-0.141225
15.960,261900,8.451532,3.093309,3.562572,-0.132432,0.243547,-0.193985
15.980,261920,8.164227,3.055001,3.687071,-0.122972,0.353729,-0.263665
16.000,261940,9.097966,3.055001,4.060566,-0.091263,0.345602,-0.354528
16.020,261960,10.237606,2.729390,3.964798,-0.073011,0.438597,-0.304433
16.040,261980,9.380483,2.427721,3.744531,-0.078340,0.483096,-0.183459
16.060,262000,8.978256,2.279280,3.883395,-0.089798,0.420211,-0.124571
16.080,262020,8.418014,2.250550,3.960010,-0.105786,0.429671,-0.080605
16.100,262040,8.130709,2.355895,3.907337,-0.093928,0.358126,-0.052360
16.120,262060,8.523358,2.513912,4.132392,-0.067815,0.254605,-0.050228
16.140,262080,8.939949,2.604892,4.194642,-0.035839,0.198115,-0.043167
16.160,262100,9.184157,2.446874,4.247314,-0.028112,0.127103,-0.030243
16.180,262120,9.390059,2.308010,4.074931,-0.046364,0.037438,0.001332
16.200,262140,9.466674,2.360683,3.983952,-0.085268,-0.048096,0.035706
16.220,262160,9.442732,2.461239,4.022259,-0.108583,-0.098191,0.059688
16.240,262180,9.208099,2.619257,4.094085,-0.116844,-0.114712,0.067015
16.260,262200,9.050082,2.719813,4.103662,-0.111248,-0.084335,0.060087
16.280,262220,9.074024,2.834735,4.103662,-0.092063,-0.042501,0.060221
16.300,262240,9.227253,2.920926,3.993528,-0.029577,-0.012257,0.075942
16.320,262260,9.279925,3.059790,4.055778,0.021983,0.006395,0.084602
16.340,262280,9.294291,2.987964,4.185065,0.065017,0.018386,0.079806
16.360,262300,9.260772,2.839523,4.280833,0.068614,0.013456,0.061953
16.380,262320,9.437943,2.753332,4.333505,0.016254,0.008793,0.050228
16.400,262340,9.758766,2.743755,4.285621,-0.030243,-0.020384,0.054891
16.420,262360,10.089166,2.729390,4.199430,-0.075142,-0.065417,0.070613
16.440,262380,10.184934,2.810793,4.213795,-0.110715,-0.101789,0.102188
16.460,262400,9.940725,3.007117,4.242526,-0.118975,-0.118576,0.110449
16.480,262420,9.634268,3.074155,4.271256,-0.107251,-0.110848,0.075142
16.500,262440,9.500193,2.987964,4.209007,-0.080472,-0.080205,0.027446
16.520,262460,9.361329,2.920926,4.199430,-0.067015,-0.055691,0.006928
16.540,262480,9.409213,2.930503,4.256891,-0.078207,-0.042900,0.012257
16.560,262500,9.327810,2.920926,4.352659,-0.079806,-0.021850,0.041302
16.580,262520,9.246407,2.949656,4.443638,-0.116444,-0.016254,0.063152
16.600,262540,9.299079,2.916138,4.481946,-0.163608,-0.026779,0.067681
16.620,262560,9.275137,2.810793,4.414908,-0.180662,-0.023049,0.061819
16.640,262580,9.193734,2.748544,4.395754,-0.161476,-0.047031,0.048096
16.660,262600,9.165004,2.734178,4.400543,-0.134830,-0.060354,0.024115
16.680,262620,9.313444,2.796427,4.371812,-0.116844,-0.075409,-0.002265
16.700,262640,9.552865,2.873042,4.352659,-0.096193,-0.058622,-0.013190
16.720,262660,9.677363,2.901772,4.242526,-0.074343,-0.045032,-0.008527
16.740,262680,9.667787,2.863465,4.094085,-0.062619,-0.027845,0.001066
16.760,262700,9.662998,2.801216,4.060566,-0.069147,-0.045965,0.003331
16.780,262720,9.653421,2.686294,4.074931,-0.094061,-0.037571,0.000133
16.800,262740,9.639056,2.557007,4.046201,-0.075142,-0.008260,-0.002132
16.820,262760,9.490616,2.504335,3.974375,-0.083936,0.005462,-0.017187
16.840,262780,9.600749,2.470816,3.936068,-0.101123,-0.014389,-0.046897
16.860,262800,10.012551,2.470816,3.849876,-0.129634,-0.051161,-0.067149
16.880,262820,9.773131,2.327164,3.529053,-0.109250,-0.031309,-0.054092
16.900,262840,8.844181,2.207454,3.337517,-0.095527,-0.018253,-0.044899
16.920,262860,8.049306,2.212242,3.351882,-0.096859,-0.005329,-0.081138
16.940,262880,7.565677,2.063802,3.213019,-0.092729,0.040502,-0.137628
16.960,262900,7.364564,1.766921,2.925714,-0.084868,0.053026,-0.167205
16.980,262920,7.187394,1.455675,2.624045,-0.100323,0.032642,-0.141092
17.000,262940,6.138733,1.259350,2.245761,-0.147087,0.028911,-0.065150
17.020,262960,4.501099,1.489193,2.063802,-0.178130,0.022916,-0.026113
17.040,262980,3.596091,2.001553,2.303222,-0.165740,0.044366,-0.059954
17.060,263000,4.299986,2.274492,2.662352,-0.102855,0.087533,-0.142291
17.080,263020,5.698200,2.528277,3.007117,-0.081404,0.154681,-0.233021
17.100,263040,8.327033,2.643199,3.600879,-0.128968,0.021583,-0.333478
17.120,263060,9.696517,2.135628,3.462016,-0.102988,0.049695,-0.288845
17.140,263080,7.958326,1.939303,3.198653,-0.172135,0.011724,-0.100590
17.160,263100,5.942409,2.418144,3.246537,-0.265263,-0.081804,-0.001066
17.180,263120,6.914454,3.303998,3.969586,-0.260067,-0.224495,-0.061686
17.200,263140,9.366117,3.543418,4.371812,-0.168404,-0.231822,-0.103787
17.220,263160,9.739613,3.356671,4.601655,-0.102188,-0.016121,-0.055691
17.240,263180,8.628703,3.059790,4.520253,-0.123505,0.006395,0.008926
17.260,263200,8.145074,3.265691,4.596867,-0.158145,-0.042634,0.050095
17.280,263220,8.451532,3.399766,4.730943,-0.159611,-0.034640,0.022916
17.300,263240,8.906430,3.629610,4.874595,-0.139227,-0.000400,-0.047164
17.320,263260,9.615114,3.797204,5.209783,-0.116977,0.071545,-0.104453
17.340,263280,9.696517,3.888184,5.434838,-0.047963,0.141092,-0.138694
17.360,263300,9.490616,3.916914,5.468357,-0.071812,0.162542,-0.169204
17.380,263320,9.777920,4.027047,5.319916,-0.107251,0.122839,-0.136429
17.400,263340,9.519346,4.046201,5.262455,-0.140292,0.134564,-0.053159
17.420,263360,9.519346,4.027047,5.295974,-0.165473,0.094594,-0.032775
17.440,263380,9.868899,4.031836,5.291186,-0.223296,0.039436,-0.048363
17.460,263400,9.883265,4.419696,5.310339,-0.250741,-0.039836,-0.024515
17.480,263420,9.739613,4.462792,5.425261,-0.232089,-0.097126,-0.039570
17.500,263440,9.782708,4.280833,5.343858,-0.188789,-0.088599,-0.081671
17.520,263460,9.318233,3.869030,5.099649,-0.178397,-0.047031,-0.053559
17.540,263480,9.112331,3.581726,4.908113,-0.156014,-0.060887,0.034374
17.560,263500,9.591172,3.303998,4.592079,-0.134830,-0.109916,0.055025
17.580,263520,10.022128,3.165135,4.266468,-0.126570,-0.141092,0.004930
17.600,263540,9.548077,3.342306,4.505888,-0.090730,-0.081937,-0.022250
17.620,263560,9.423578,3.351882,4.730943,-0.134697,-0.179995,-0.013723
17.640,263580,9.624691,3.356671,4.802769,-0.137894,-0.177331,0.018652
17.660,263600,9.959879,3.366248,4.553771,-0.132032,-0.206775,0.051694
17.680,263620,9.959879,3.835511,4.400543,-0.090064,-0.197848,0.075542
17.700,263640,9.878476,4.146757,4.553771,0.014256,-0.171735,0.075409
17.720,263660,10.366894,3.830723,4.826711,0.083003,-0.162942,0.038371
17.740,263680,10.438720,3.643975,4.960786,0.070746,-0.065816,0.044233
17.760,263700,10.649409,3.754108,5.152322,0.037571,-0.052493,0.080738
17.780,263720,10.869676,3.940856,5.281609,0.035972,-0.014522,-0.000533
17.800,263740,10.620679,4.194642,5.262455,0.046631,0.057289,-0.080605
17.820,263760,10.692505,4.419696,5.363012,0.103387,0.098458,-0.075809
17.840,263780,11.458650,4.352659,5.453991,0.156280,0.134963,-0.081538
17.860,263800,11.860875,4.256891,5.339070,0.162542,0.157746,-0.117910
17.880,263820,11.707646,4.577713,5.286397,0.158012,0.141092,-0.154815
17.900,263840,11.535264,4.668694,5.363012,0.191453,0.166806,-0.212237
17.920,263860,11.415554,4.730943,5.396531,0.184792,0.173467,-0.248210
17.940,263880,11.769896,4.568137,5.549759,0.136296,0.163741,-0.257003
17.960,263900,11.477803,4.635174,5.664681,0.065949,0.153749,-0.203444
17.980,263920,11.142614,5.114015,5.693412,0.010259,0.116444,-0.070613
18.000,263940,11.180922,5.013458,5.722142,0.048763,0.075542,0.003597
18.020,263960,10.941502,4.721366,5.497087,0.069680,0.036372,-0.010658
18.040,263980,10.697293,4.548983,5.343858,0.071678,-0.014922,-0.012524
18.060,264000,10.845734,4.616021,5.109226,0.063285,-0.051427,0.020118
18.080,264020,10.716447,4.553771,5.075707,0.043034,-0.081138,0.036239
18.100,264040,10.309433,4.568137,5.128380,0.016254,-0.095260,0.034107
18.120,264060,10.031705,4.577713,5.114015,-0.011858,-0.093395,0.058622
18.140,264080,9.964667,4.400543,5.066131,-0.046231,-0.083536,0.065816
18.160,264100,10.055647,4.204218,4.999093,-0.116977,-0.110449,0.069813
18.180,264120,10.046070,4.596867,5.032612,-0.172534,-0.166672,0.096326
18.200,264140,9.849746,4.936844,5.013458,-0.162142,-0.203444,0.144423
18.220,264160,9.672575,4.783615,4.879383,-0.106185,-0.229691,0.153482
18.240,264180,9.203311,4.352659,4.663905,-0.079273,-0.223962,0.149619
18.260,264200,9.677363,4.161122,4.520253,-0.041968,-0.272191,0.179995
18.280,264220,9.686940,3.983952,4.477157,-0.034907,-0.272724,0.259934
18.300,264240,9.418790,3.744531,4.386178,-0.063285,-0.305499,0.287113
18.320,264260,9.141062,3.634398,4.180276,-0.099257,-0.308031,0.253273
18.340,264280,8.757990,3.610456,3.888184,-0.100456,-0.264464,0.212371
18.360,264300,8.916007,3.773262,3.600879,-0.040236,-0.225827,0.190787
18.380,264320,8.925584,3.701436,3.495534,0.050361,-0.154948,0.201979
18.400,264340,8.757990,3.323152,3.466804,0.103920,-0.131499,0.197049
18.420,264360,9.064447,2.916138,3.529053,0.091263,-0.141625,0.158412
18.440,264380,8.944737,2.777274,3.452439,0.008527,-0.093129,0.152550
18.460,264400,8.609550,3.002329,3.375824,-0.032508,-0.067149,0.180662
18.480,264420,8.513782,3.102885,3.404555,-0.035306,-0.021450,0.212770
18.500,264440,8.619126,2.930503,3.351882,-0.020384,-0.016654,0.249542
18.520,264460,8.690952,2.561796,3.327940,-0.047430,-0.153482,0.257136
18.540,264480,8.887277,2.466028,3.217807,-0.124971,-0.315891,0.181194
18.560,264500,8.896853,2.695871,3.174711,-0.219432,-0.409286,0.087799
18.580,264520,8.719683,3.069367,2.944868,-0.256204,-0.423276,0.026113
18.600,264540,9.083601,3.428497,2.624045,-0.214769,-0.391433,0.035040
18.620,264560,8.925584,3.275268,2.394202,-0.126969,-0.296040,0.122839
18.640,264580,8.451532,2.930503,2.384625,-0.087133,-0.231956,0.215302
18.660,264600,8.255207,2.533065,2.480393,-0.111648,-0.193985,0.241282
18.680,264620,8.518570,2.135628,2.461239,-0.221830,-0.168271,0.246478
18.700,264640,8.796297,2.159570,2.427721,-0.325617,-0.168404,0.254205
18.720,264660,8.777143,1.982399,2.590526,-0.384106,-0.125770,0.257936
18.740,264680,8.623915,1.920150,2.547431,-0.390101,-0.071012,0.268061
18.760,264700,8.159439,1.867477,2.566584,-0.369450,0.012257,0.294441
18.780,264720,8.298303,1.733402,2.547431,-0.330680,0.059155,0.310029
18.800,264740,8.643068,1.513135,2.470816,-0.272058,0.073544,0.314159
18.820,264760,8.470686,1.173159,2.403779,-0.204243,0.070080,0.313626
18.840,264780,8.422802,1.015141,2.322376,-0.180528,-0.014256,0.303368
18.860,264800,8.877700,0.995988,2.384625,-0.165873,-0.067282,0.294841
18.880,264820,8.772355,0.876278,2.346318,-0.146688,-0.063551,0.292975
18.900,264840,8.384495,0.742203,2.796427,-0.174133,0.004263,0.268861
18.920,264860,8.465898,0.876278,2.681506,-0.255538,0.035040,0.257136
18.940,264880,9.284714,1.019930,2.762909,-0.245412,0.016521,0.215968
18.960,264900,9.677363,1.063026,2.724602,-0.208374,0.009459,0.184525
18.980,264920,9.323022,0.866701,2.758120,-0.133897,-0.011325,0.149086
19.000,264940,9.390059,0.861913,2.786851,-0.109649,-0.039703,0.096859
19.020,264960,9.888053,1.043872,2.700660,-0.068881,-0.042101,0.046231
19.040,264980,10.070012,1.206678,2.724602,-0.036639,-0.056623,0.011991
19.060,265000,9.667787,1.278504,2.686294,-0.003730,-0.017453,-0.010392
19.080,265020,9.270349,1.307234,2.734178,0.027312,0.037838,-0.027179
19.100,265040,9.265560,1.398214,2.829947,0.053026,0.128701,-0.045299
19.120,265060,9.433155,1.522712,2.882619,0.062086,0.223562,-0.059688
19.140,265080,9.548077,1.484405,3.050213,0.050628,0.296573,-0.087133
19.160,265100,9.749189,1.450886,3.045424,0.042634,0.326683,-0.122173
19.180,265120,10.132261,1.498770,3.136404,0.030110,0.298838,-0.139360
19.200,265140,10.213664,1.436521,3.246537,0.039303,0.266995,-0.133631
19.220,265160,9.998186,1.537078,3.265691,0.040636,0.238617,-0.126703
19.240,265180,9.902418,1.623269,3.361459,0.042634,0.189055,-0.139227
19.260,265200,9.868899,1.776498,3.399766,0.064217,0.168937,-0.134564
19.280,265220,9.935937,1.958457,3.404555,0.083669,0.131233,-0.152550
19.300,265240,10.050858,1.963245,3.442862,0.119242,0.123239,-0.173334
19.320,265260,10.074800,1.896208,3.423708,0.127103,0.117377,-0.174000
19.340,265280,9.935937,1.776498,3.390190,0.118842,0.104453,-0.148420
19.360,265300,9.844957,1.742979,3.323152,0.077008,0.088199,-0.114312
19.380,265320,9.907207,1.800440,3.356671,0.055557,0.064617,-0.087133
19.400,265340,9.897630,1.848324,3.404555,0.033708,0.058355,-0.067548
19.420,265360,9.945514,1.829170,3.423708,0.031576,0.065816,-0.056490
19.440,265380,9.864111,1.738190,3.380613,0.030910,0.048230,-0.070746
19.460,265400,9.758766,1.671153,3.414132,0.029178,0.047164,-0.093262
19.480,265420,9.739613,1.565808,3.342306,-0.000533,0.062752,-0.108583
19.500,265440,9.725247,1.465251,3.155558,-0.006662,0.055291,-0.115112
19.520,265460,9.528923,1.321599,3.083732,-0.029178,0.030377,-0.109783
19.540,265480,9.232041,1.211466,3.007117,-0.073943,-0.015988,-0.108450
19.560,265500,8.949526,1.082179,2.839523,-0.065816,0.010925,-0.108450
19.580,265520,8.389283,1.010353,2.695871,-0.088998,0.000400,-0.086867
19.600,265540,7.991845,0.981623,2.566584,-0.088865,0.002798,-0.071678
19.620,265560,8.039729,0.948104,2.576161,-0.101922,-0.041302,-0.080072
19.640,265580,8.274361,0.952892,2.686294,-0.132832,-0.062885,-0.097525
19.660,265600,8.398860,0.842759,2.619257,-0.160144,-0.042767,-0.109649
19.680,265620,7.800309,0.761356,2.451663,-0.172002,-0.021450,-0.119109
19.700,265640,7.790732,0.943315,2.513912,-0.172002,-0.065283,-0.180129
19.720,265660,8.327033,1.158794,2.657564,-0.193851,-0.043700,-0.248876
19.740,265680,8.341399,1.426944,2.595315,-0.157479,0.000666,-0.307364
19.760,265700,7.833828,1.575385,2.504335,-0.151750,0.122706,-0.349199
19.780,265720,7.671022,1.776498,2.619257,-0.149619,0.171735,-0.418613
19.800,265740,7.589619,1.972822,2.806004,-0.158279,0.258868,-0.492956
19.820,265760,7.522582,2.188300,2.997540,-0.159744,0.343204,-0.591813
19.840,265780,7.603985,2.413355,3.280056,-0.178663,0.460314,-0.678014
19.860,265800,8.073248,2.686294,3.514688,-0.212237,0.494421,-0.753156
19.880,265820,8.537724,2.853889,3.687071,-0.215701,0.548247,-0.773674
19.900,265840,8.494628,3.107674,3.936068,-0.198248,0.629784,-0.756887
19.920,265860,8.628703,3.256114,4.252102,-0.254205,0.633115,-0.747028
19.940,265880,7.977480,3.763685,4.462792,-0.311761,0.743564,-0.736369
19.960,265900,8.063671,4.299986,4.730943,-0.316957,0.733838,-0.800587
19.980,265920,8.734048,4.467580,4.855441,-0.230224,0.667888,-0.804850
20.000,265940,8.772355,4.381389,4.989516,-0.186124,0.676815,-0.726243
20.020,265960,8.322245,4.548983,5.458780,-0.166539,0.628052,-0.603937
20.040,265980,7.987057,4.434062,5.889736,-0.169603,0.599807,-0.473237
20.060,266000,8.303091,4.209007,5.894525,-0.216368,0.503614,-0.368651
20.080,266020,8.499416,4.199430,5.827487,-0.320155,0.396230,-0.332412
20.100,266040,8.101978,4.381389,5.789180,-0.388902,0.348266,-0.306832
20.120,266060,8.068460,4.328717,5.770026,-0.207708,0.331879,-0.238750
20.140,266080,7.800309,4.175488,6.114791,-0.303767,0.376778,-0.193052
20.160,266100,7.580042,4.376601,6.272809,-0.322953,0.426207,-0.078873
20.180,266120,8.135497,4.663905,6.421249,-0.289511,0.387570,0.058355
20.200,266140,8.571242,4.491522,6.641516,-0.262998,0.381441,0.125371
20.220,266160,8.643068,4.429273,6.526594,-0.294708,0.342404,0.121640
20.240,266180,8.820239,4.381389,6.555324,-0.251940,0.243014,0.019185
20.260,266200,9.212888,4.357447,6.397307,-0.264064,0.171069,-0.100856
20.280,266220,9.236830,4.347870,6.291962,-0.241282,0.112181,-0.170003
20.300,266240,8.729259,4.343082,6.306327,-0.255404,0.092329,-0.207175
20.320,266260,8.418014,4.424485,6.349423,-0.266462,0.080205,-0.211038
20.340,266280,8.671799,4.730943,6.354211,-0.263265,0.057822,-0.184925
20.360,266300,9.390059,4.841076,6.646304,-0.301103,-0.002531,-0.202645
20.380,266320,8.829816,5.085284,6.847417,-0.296040,0.085002,-0.208640
20.400,266340,8.432379,5.305551,6.971915,-0.316691,0.089265,-0.165340
20.420,266360,8.437167,5.295974,6.880936,-0.319355,0.078340,-0.121374
20.440,266380,8.623915,5.305551,6.564901,-0.319355,0.027845,-0.108717
20.460,266400,8.896853,5.272032,6.387730,-0.290311,-0.048763,-0.093129
20.480,266420,8.676587,5.133168,6.354211,-0.238750,-0.067015,-0.075942
20.500,266440,8.336611,4.893748,6.550536,-0.194651,-0.053426,-0.035839
20.520,266460,8.355764,4.539406,6.627151,-0.190121,-0.052093,-0.005596
20.540,266480,8.580819,4.453215,6.603208,-0.205576,-0.051827,-0.020384
20.560,266500,8.614338,4.635174,6.588843,-0.184392,-0.019985,-0.037838
20.580,266520,8.882488,4.759673,6.766014,-0.097259,0.007328,-0.072211
20.600,266540,8.781932,4.673482,6.995857,-0.019185,0.101389,-0.135896
20.620,266560,8.403648,4.534618,7.268796,-0.008394,0.252207,-0.227026
20.640,266580,9.069236,4.759673,7.546524,-0.002132,0.340006,-0.294441
20.660,266600,9.452309,5.080496,7.948750,-0.003997,0.351464,-0.397562
20.680,266620,9.270349,5.626374,8.437167,-0.043167,0.349732,-0.497752
20.700,266640,9.404425,6.181829,8.767567,-0.032775,0.291910,-0.462712
20.720,266660,10.065224,6.177041,9.088389,-0.035040,0.134564,-0.373447
20.740,266680,9.926360,6.258443,9.088389,-0.077940,-0.005063,-0.313626
20.760,266700,9.734824,6.588843,8.925584,-0.162142,-0.155348,-0.220498
20.780,266720,9.902418,6.694188,8.470686,-0.167072,-0.285648,-0.143757
20.800,266740,9.327810,6.416461,7.967903,-0.108051,-0.351997,-0.101256
20.820,266760,8.614338,5.995081,7.551312,-0.086334,-0.374779,-0.041302
20.840,266780,8.585608,5.549759,7.350199,-0.060620,-0.414083,-0.001998
20.860,266800,8.590396,5.401319,7.177817,-0.090464,-0.388236,0.044632
20.880,266820,8.489840,5.372589,7.077260,-0.114712,-0.375046,0.062352
20.900,266840,8.427590,5.329493,6.971915,-0.120708,-0.365320,0.016121
20.920,266860,8.346188,5.224148,6.780379,-0.119109,-0.348799,-0.025980
20.940,266880,8.422802,5.367800,6.574478,-0.111381,-0.305100,-0.049562
20.960,266900,8.101978,5.262455,6.287174,-0.049162,-0.224628,-0.066749
20.980,266920,8.087613,5.090073,6.004658,0.001599,-0.167738,-0.103121
21.000,266940,8.590396,5.257667,5.913678,0.029044,-0.232888,-0.088466
21.020,266960,8.259995,5.679047,6.205771,0.063285,-0.257136,-0.029977
21.040,266980,8.025364,5.990293,6.368577,0.099923,-0.300570,0.038504
21.060,267000,8.523358,5.736507,6.354211,0.078207,-0.386371,0.087533
21.080,267020,8.576031,5.525817,6.009446,0.045965,-0.441795,0.156813
21.100,267040,8.125920,5.918467,5.789180,0.019585,-0.500417,0.284582
21.120,267060,8.384495,6.076484,5.612009,0.074876,-0.583020,0.405689
21.140,267080,8.226477,5.746084,5.094861,0.129634,-0.567965,0.441129
21.160,267100,8.078036,5.243302,4.884171,0.124305,-0.529061,0.429937
21.180,267120,7.661446,4.558560,4.596867,0.094194,-0.442727,0.472971
21.200,267140,7.216124,4.338294,4.266468,0.034107,-0.428738,0.538121
21.220,267160,7.623138,4.151546,4.419696,0.057423,-0.447790,0.584485
21.240,267180,7.766790,4.041412,4.314352,0.039303,-0.444726,0.607135
21.260,267200,7.302315,4.151546,4.098873,0.077541,-0.393965,0.605403
21.280,267220,7.575254,3.983952,4.012682,0.172934,-0.403024,0.630051
21.300,267240,8.231265,3.835511,4.098873,0.203311,-0.400893,0.670286
21.320,267260,7.934384,3.562572,4.065354,0.176398,-0.381308,0.697332
21.340,267280,7.661446,3.289633,4.261679,0.139493,-0.418879,0.702795
21.360,267300,7.278373,3.213019,4.050989,0.051560,-0.433135,0.734637
21.380,267320,6.995857,3.260903,3.888184,0.120841,-0.483096,0.769943
21.400,267340,7.158663,3.050213,3.725378,0.163741,-0.461113,0.821904
21.420,267360,7.345411,2.585738,3.438074,0.191453,-0.449123,0.847217
21.440,267380,7.038953,2.274492,3.256114,0.178397,-0.394098,0.811911
21.460,267400,7.287950,2.106898,3.011906,0.203711,-0.326550,0.709723
21.480,267420,6.976704,1.843535,2.896984,0.085668,-0.110049,0.593412
21.500,267440,6.761226,1.604115,2.758120,0.008127,0.036372,0.431536
21.520,267460,6.976704,1.264138,2.600103,0.007194,0.141625,0.283383
21.540,267480,7.728483,1.086968,2.489970,-0.012391,0.146954,0.221031
21.560,267500,8.188169,1.077391,2.566584,-0.005462,0.156014,0.228225
21.580,267520,8.341399,1.187524,2.671929,0.013590,0.165740,0.256337
21.600,267540,8.398860,1.302446,3.031059,0.066083,0.188789,0.255005
21.620,267560,8.499416,1.259350,3.313575,0.086067,0.222096,0.214103
21.640,267580,8.868123,1.110910,3.399766,0.080338,0.196916,0.174266
21.660,267600,9.294291,0.995988,3.509900,0.062086,0.135363,0.159211
21.680,267620,9.586384,1.091756,3.653552,0.036239,0.050761,0.156547
21.700,267640,9.466674,1.331176,3.825934,0.004930,-0.008660,0.135496
21.720,267660,9.437943,1.455675,3.825934,-0.035706,-0.033708,0.115245
21.740,267680,9.519346,1.637634,3.763685,-0.061686,-0.055691,0.094994
21.760,267700,9.404425,1.675941,3.830723,-0.081671,-0.044766,0.079939
21.780,267720,9.279925,1.838747,4.003105,-0.071545,-0.091796,0.097259
21.800,267740,9.303867,1.838747,3.940856,-0.054492,-0.062752,0.100057
21.820,267760,9.557653,1.805228,4.031836,-0.011058,-0.017320,0.087933
21.840,267780,9.581595,1.675941,4.094085,0.027579,0.010525,0.086334
21.860,267800,9.390059,1.517924,4.127604,0.047031,0.021317,0.072744
21.880,267820,9.351752,1.426944,4.050989,0.030110,-0.021717,0.053825
21.900,267840,9.169792,1.369483,3.960010,0.031309,-0.019052,0.030377
21.920,267860,8.968679,1.340753,3.787627,-0.003198,-0.037038,0.015188
21.940,267880,9.097966,1.403002,3.711013,-0.021583,-0.063551,0.001998
21.960,267900,9.327810,1.403002,3.778050,-0.038504,-0.079806,-0.003464
21.980,267920,9.615114,1.484405,3.859453,-0.085268,-0.102188,-0.002531
22.000,267940,10.304645,1.498770,3.964798,-0.134164,-0.138827,-0.010392
22.020,267960,11.070788,1.661576,3.950433,-0.174133,-0.146954,-0.006928
22.040,267980,11.271901,1.680730,3.739743,-0.169337,-0.139360,0.010259
22.060,268000,11.032481,1.762132,3.505111,-0.152949,-0.147354,0.011458
22.080,268020,10.491392,1.762132,3.462016,-0.098858,-0.154149,-0.012923
22.100,268040,9.835381,1.690306,3.327940,-0.086201,-0.093928,-0.056090
22.120,268060,9.409213,1.599327,3.476381,-0.088066,-0.043433,-0.126303
22.140,268080,9.246407,1.503559,3.270479,-0.157613,0.012124,-0.182926
22.160,268100,9.366117,1.551443,3.117251,-0.127369,0.073410,-0.214502
22.180,268120,9.471462,1.656788,3.256114,-0.157080,0.065816,-0.249809
22.200,268140,9.552865,1.766921,3.213019,-0.184658,0.053159,-0.264464
22.220,268160,9.830592,1.862689,3.169923,-0.109383,0.112714,-0.243413
22.240,268180,9.854534,2.111686,3.390190,-0.120574,0.091530,-0.202911
22.260,268200,9.931149,2.303222,3.371036,-0.140026,0.069014,-0.171069
22.280,268220,10.218452,2.370260,3.361459,-0.058222,0.085002,-0.146021
22.300,268240,10.438720,2.154782,3.366248,-0.063285,0.053692,-0.124305
22.320,268260,10.376471,1.987187,3.361459,-0.163741,-0.029711,-0.085934
22.340,268280,10.247183,1.924938,3.241749,-0.135496,-0.012124,-0.071012
22.360,268300,9.955091,2.006341,3.241749,-0.162675,-0.011724,-0.075542
22.380,268320,9.753978,2.092532,3.313575,-0.183060,0.018919,-0.094861
22.400,268340,9.595961,2.154782,3.318364,-0.176398,0.063285,-0.104720
22.420,268360,9.653421,2.250550,3.394978,-0.190121,0.079139,-0.107784
22.440,268380,9.753978,2.375048,3.418920,-0.178930,0.095926,-0.112980
22.460,268400,9.739613,2.470816,3.514688,-0.167605,0.117377,-0.142025
22.480,268420,9.792285,2.379837,3.605668,-0.130034,0.134164,-0.180528
22.500,268440,9.911995,2.245761,3.624821,-0.119109,0.139626,-0.202112
22.520,268460,10.070012,2.212242,3.552995,-0.118443,0.140559,-0.201446
22.540,268480,10.041282,2.336741,3.548207,-0.102455,0.126836,-0.202911
22.560,268500,9.777920,2.389413,3.711013,-0.078074,0.135096,-0.221164
22.580,268520,9.595961,2.475605,3.864242,-0.068747,0.128835,-0.249942
22.600,268540,9.394848,2.355895,3.667917,-0.064617,0.162942,-0.261666
22.620,268560,9.174581,2.264915,3.605668,-0.046231,0.189721,-0.258202
22.640,268580,9.040505,2.149993,3.347094,-0.036372,0.165473,-0.222230
22.660,268600,8.772355,2.087744,3.169923,-0.039037,0.140692,-0.189855
22.680,268620,8.279149,1.972822,3.055001,-0.044899,0.139760,-0.178796
22.700,268640,7.565677,1.824382,2.868254,-0.045832,0.152150,-0.182660
22.720,268660,7.153875,1.795651,2.729390,-0.083003,0.140692,-0.207175
22.740,268680,7.412448,1.905785,2.892196,-0.092596,0.127236,-0.246744
22.760,268700,8.006210,1.987187,2.992752,-0.099257,0.137095,-0.266063
22.780,268720,8.025364,2.097321,2.949656,-0.116844,0.153216,-0.256870
22.800,268740,7.852982,1.972822,2.829947,-0.148020,0.130567,-0.253939
22.820,268760,7.455544,1.833959,2.662352,-0.168271,0.105119,-0.220764
22.840,268780,6.517017,1.881842,2.887407,-0.185991,0.108317,-0.178930
22.860,268800,6.421249,2.135628,3.174711,-0.229691,0.090464,-0.158545
22.880,268820,5.947197,2.422932,3.524265,-0.242481,0.179862,-0.178397
22.900,268840,5.602432,2.533065,3.801992,-0.230757,0.282850,-0.235420
22.920,268860,6.124368,2.489970,3.926491,-0.220098,0.331080,-0.294041
22.940,268880,7.058106,2.351106,3.883395,-0.223695,0.336276,-0.330413
22.960,268900,7.762002,2.312799,3.677494,-0.229691,0.300170,-0.291910
22.980,268920,7.369353,2.365471,3.610456,-0.274190,0.281518,-0.223695
23.000,268940,7.220912,2.475605,3.615245,-0.268194,0.196383,-0.209706
23.020,268960,7.350199,2.600103,3.739743,-0.258069,0.170003,-0.207574
23.040,268980,7.608773,2.710236,3.897760,-0.218632,0.157879,-0.199181
23.060,269000,8.293514,2.595315,4.204218,-0.221963,0.132832,-0.204776
23.080,269020,8.279149,2.451663,4.228160,-0.217567,0.198115,-0.185058
23.100,269040,7.948750,2.686294,4.390966,-0.232888,0.207574,-0.147354
23.120,269060,7.742848,2.724602,4.740520,-0.280185,0.272724,-0.184392
23.140,269080,8.006210,3.040636,4.893748,-0.277121,0.317224,-0.264864
23.160,269100,8.106767,3.361459,5.085284,-0.252473,0.374646,-0.334144
23.180,269120,8.169016,3.811569,5.329493,-0.245545,0.449789,-0.436199
23.200,269140,8.518570,4.314352,5.559336,-0.220364,0.508544,-0.492289
23.220,269160,8.681376,4.419696,5.990293,-0.141092,0.535856,-0.495887
23.240,269180,8.729259,4.726154,6.200983,-0.134830,0.579956,-0.480165
23.260,269200,9.136273,5.161899,6.397307,-0.078606,0.587017,-0.402492
23.280,269220,9.131485,5.109226,6.636727,-0.011858,0.591813,-0.339074
23.300,269240,9.428367,5.147533,7.139510,0.063951,0.521334,-0.359458
23.320,269260,9.466674,5.123591,7.479486,0.046897,0.521734,-0.315492
23.340,269280,9.059659,5.219360,7.331046,0.006262,0.516271,-0.246611
23.360,269300,9.279925,5.358223,7.311892,0.021583,0.468841,-0.210505
23.380,269320,9.188946,5.401319,7.364564,0.076342,0.447257,-0.179329
23.400,269340,9.074024,5.305551,7.661446,0.074609,0.366519,-0.207308
23.420,269360,9.184157,5.535394,7.704541,0.040236,0.276322,-0.233288
23.440,269380,8.796297,5.717354,7.580042,-0.043966,0.278853,-0.212104
23.460,269400,8.719683,5.760449,7.560889,-0.082204,0.214369,-0.214902
23.480,269420,8.724471,5.942409,7.517793,-0.116577,0.225960,-0.203044
23.500,269440,8.264784,6.052542,7.608773,-0.129234,0.234887,-0.169870
23.520,269460,8.245630,6.181829,7.924808,-0.033441,0.217433,-0.158678
23.540,269480,8.652645,5.975927,8.374918,0.066882,0.281518,-0.118576
23.560,269500,9.212888,5.664681,8.585608,0.149352,0.231956,-0.057556
23.580,269520,9.097966,5.348647,8.537724,0.186124,0.115511,-0.067948
23.600,269540,9.078813,5.137957,8.355764,0.140026,-0.034107,-0.078074
23.620,269560,8.743625,5.152322,8.140285,0.078340,-0.073943,-0.002398
23.640,269580,8.441956,5.214571,8.020576,0.025181,-0.075942,0.066616
23.660,269600,8.767567,5.425261,8.025364,-0.005862,-0.101522,0.052626
23.680,269620,9.184157,5.492299,7.709330,-0.011591,-0.098724,-0.005196
23.700,269640,8.983045,5.492299,7.584831,0.020518,-0.128302,-0.074743
23.720,269660,9.193734,5.497087,7.642292,-0.005196,-0.170403,-0.077541
23.740,269680,9.615114,5.564125,7.627927,-0.014789,-0.213836,-0.053426
23.760,269700,9.442732,5.808333,7.527370,-0.079006,-0.226227,-0.035173
23.780,269720,9.586384,6.028600,7.407660,-0.060887,-0.275389,-0.030910
23.800,269740,9.265560,6.191406,7.192182,-0.080338,-0.246611,-0.035706
23.820,269760,9.227253,6.196194,6.904878,-0.088865,-0.266995,-0.020251
23.840,269780,8.997410,5.899313,6.655881,-0.106185,-0.235286,0.066482
23.860,269800,8.872911,5.540183,6.517017,-0.127902,-0.214369,0.157879
23.880,269820,9.021352,5.487510,6.579266,-0.108583,-0.178130,0.185058
23.900,269840,8.729259,5.736507,6.732495,-0.065150,-0.106851,0.136029
23.920,269860,8.944737,5.683835,7.034164,0.058089,-0.052360,0.038504
23.940,269880,9.260772,5.640739,7.053318,0.096726,-0.048496,-0.022250
23.960,269900,9.375694,5.578490,6.962338,0.119109,-0.101789,-0.017054
23.980,269920,8.815451,5.679047,6.746861,0.112047,-0.196516,0.075809
24.000,269940,8.647857,5.712565,6.593631,0.096992,-0.263798,0.166672
24.020,269960,8.432379,5.669470,6.636727,0.024381,-0.262332,0.198115
24.040,269980,8.188169,5.702989,6.809110,-0.096859,-0.239417,0.197982
24.060,270000,8.274361,6.258443,6.789956,-0.204643,-0.246611,0.197848
24.080,270020,8.786720,6.694188,6.684611,-0.251141,-0.280052,0.175865
24.100,270040,9.514558,6.823475,6.564901,-0.181727,-0.353196,0.232489
24.120,270060,9.136273,6.641516,6.359000,-0.094328,-0.405822,0.397828
24.140,270080,8.743625,6.119579,6.258443,0.002798,-0.483230,0.576358
24.160,270100,8.652645,5.324705,6.268020,0.032775,-0.534524,0.656297
24.180,270120,8.719683,4.884171,6.124368,-0.053026,-0.554508,0.629784
24.200,270140,9.021352,4.716578,5.999869,-0.112447,-0.525864,0.643240
24.220,270160,8.719683,4.486734,5.731719,-0.106585,-0.467109,0.703061
24.240,270180,8.365341,4.046201,5.439626,-0.068614,-0.460980,0.751824
24.260,270200,8.212111,3.596091,5.190629,-0.010658,-0.469640,0.794991
24.280,270220,8.149862,3.189077,5.118803,0.052493,-0.515472,0.775806
24.300,270240,7.967903,2.964022,4.970363,0.088199,-0.519069,0.716917
24.320,270260,8.221688,2.887407,4.903325,0.134297,-0.547314,0.637245
24.340,270280,8.623915,2.782062,4.553771,0.182660,-0.550378,0.581554
24.360,270300,8.810662,2.518700,4.347870,0.217300,-0.601806,0.543583
24.380,270320,8.087613,2.418144,4.323928,0.191720,-0.599274,0.496153
24.400,270340,7.283162,2.059013,4.194642,0.183326,-0.562236,0.444992
24.420,270360,6.785168,1.795651,3.835511,0.114845,-0.484029,0.382640
24.440,270380,6.794744,1.762132,3.529053,0.023049,-0.436599,0.300037
24.460,270400,6.962338,1.790863,3.251326,-0.036372,-0.379043,0.202378
24.480,270420,6.651093,1.618480,3.083732,-0.038371,-0.291643,0.124704
24.500,270440,6.028600,1.465251,2.829947,-0.067681,-0.178130,0.073144
24.520,270460,5.856217,1.412579,2.743755,-0.074077,-0.102455,0.027579
24.540,270480,5.937620,1.422156,2.600103,-0.085801,-0.034507,-0.006262
24.560,270500,5.956774,1.431733,2.384625,-0.085268,0.030510,-0.032642
24.580,270520,6.086061,1.455675,2.240973,-0.069014,0.046764,-0.072478
24.600,270540,6.785168,1.379060,2.231396,-0.041035,0.031576,-0.126037
24.620,270560,7.465121,1.446098,2.341529,-0.035306,0.010792,-0.141358
24.640,270580,7.857770,1.532289,2.456451,-0.047297,0.026380,-0.115511
24.660,270600,8.331821,1.661576,2.365471,-0.042234,0.016254,-0.063152
24.680,270620,8.748413,1.709460,2.379837,-0.026513,-0.008127,-0.013590
24.700,270640,8.973468,1.656788,2.480393,-0.037038,-0.015322,0.005862
24.720,270660,9.150639,1.546654,2.552219,-0.090997,-0.058489,0.005596
24.740,270680,9.064447,1.503559,2.480393,-0.176398,-0.061953,0.021184
24.760,270700,8.997410,1.575385,2.480393,-0.247677,-0.084868,0.057289
24.780,270720,8.834604,1.762132,2.528277,-0.270859,-0.098591,0.091930
24.800,270740,8.547300,1.910573,2.533065,-0.275389,-0.095260,0.106052
24.820,270760,8.169016,1.953669,2.786851,-0.248210,-0.061020,0.093928
24.840,270780,8.336611,2.159570,2.959233,-0.220498,-0.059688,0.063285
24.860,270800,9.447520,2.518700,3.332729,-0.185325,-0.119775,0.027712
24.880,270820,11.549629,2.715025,3.773262,-0.168138,-0.152816,0.036639
24.900,270840,12.861651,2.906561,3.792415,-0.072744,-0.124172,0.095793
24.920,270860,12.708423,2.499547,3.878607,0.051028,-0.024248,0.166539
24.940,270880,11.511322,2.015918,3.620033,0.045832,-0.051960,0.199447
24.960,270900,10.860099,1.565808,3.361459,-0.042767,-0.176665,0.209706
24.980,270920,10.208876,1.431733,3.107674,-0.110982,-0.224095,0.202778
25.000,270940,9.284714,1.580173,3.074155,-0.196516,-0.198515,0.172401
25.020,270960,8.461109,1.877054,2.987964,-0.232222,-0.170136,0.085002
25.040,270980,8.518570,2.169147,3.069367,-0.222629,-0.088332,-0.025847
25.060,271000,8.939949,2.269703,2.978387,-0.163075,-0.001332,-0.107118
25.080,271020,9.481039,2.308010,2.944868,-0.105786,0.038637,-0.146021
25.100,271040,10.002975,2.221819,3.055001,-0.053292,0.026513,-0.137628
25.120,271060,10.137050,2.207454,3.198653,-0.017720,0.000799,-0.096859
25.140,271080,10.242394,2.255338,3.260903,-0.028245,-0.027312,-0.048763
25.160,271100,10.319010,2.284068,3.308787,-0.027712,-0.065550,-0.006662
25.180,271120,10.232818,2.341529,3.265691,-0.041968,-0.077807,0.027845
25.200,271140,10.242394,2.365471,3.208230,-0.043167,-0.116977,0.027179
25.220,271160,10.046070,2.389413,3.193865,-0.014256,-0.077940,0.004397
25.240,271180,9.639056,2.394202,3.107674,-0.024914,-0.060487,-0.044632
25.260,271200,9.500193,2.418144,3.117251,-0.031176,-0.036239,-0.096459
25.280,271220,9.318233,2.442086,3.059790,-0.057689,-0.007061,-0.133098
25.300,271240,9.337387,2.442086,2.968810,-0.021450,0.025580,-0.146688
25.320,271260,9.409213,2.533065,3.031059,-0.101789,0.025314,-0.139760
25.340,271280,9.653421,2.509123,3.074155,-0.121374,0.047430,-0.121640
25.360,271300,9.686940,2.691083,3.136404,-0.170536,0.040369,-0.089265
25.380,271320,9.868899,2.772485,3.165135,-0.156813,0.029577,-0.061819
25.400,271340,9.878476,2.820370,3.217807,-0.160544,0.019585,-0.049962
25.420,271360,9.821015,2.849100,3.337517,-0.116044,0.013456,-0.039303
25.440,271380,9.825804,2.791639,3.299210,-0.070346,-0.001466,-0.025980
25.460,271400,9.821015,2.719813,3.232172,-0.061819,0.013856,-0.000933
25.480,271420,9.840169,2.643199,3.241749,-0.057689,0.006129,0.025980
25.500,271440,9.758766,2.566584,3.246537,-0.037971,-0.003864,0.036505
25.520,271460,9.648633,2.513912,3.280056,-0.088466,-0.000799,0.024248
25.540,271480,9.615114,2.461239,3.428497,-0.079539,-0.019985,0.008127
25.560,271500,9.533711,2.422932,3.466804,-0.048896,-0.027179,-0.005329
25.580,271520,9.610326,2.480393,3.351882,-0.067415,-0.023315,-0.012923
25.600,271540,9.706094,2.580950,3.347094,-0.066083,-0.033841,-0.015588
25.620,271560,9.725247,2.657564,3.270479,-0.034507,-0.028778,-0.015855
25.640,271580,9.715671,2.647987,3.270479,-0.009326,-0.025580,-0.011724
25.660,271600,9.619903,2.671929,3.299210,0.081538,-0.042368,-0.011191
25.680,271620,9.686940,2.576161,3.189077,0.045432,-0.014655,-0.004530
25.700,271640,9.768343,2.528277,3.270479,0.076741,-0.013590,-0.005995
25.720,271660,9.734824,2.418144,3.193865,0.128035,0.019585,-0.004930
25.740,271680,9.811439,2.360683,3.107674,-0.004930,-0.012124,-0.014655
25.760,271700,9.696517,2.264915,3.136404,0.003997,-0.001066,-0.014522
25.780,271720,9.749189,2.221819,2.767697,-0.033175,-0.034507,-0.013190
25.800,271740,9.964667,2.269703,2.633622,-0.110982,-0.057156,-0.001066
25.820,271760,10.553641,2.169147,2.585738,-0.147087,-0.096726,0.006528
25.840,271780,10.941502,2.044648,2.432509,-0.124971,-0.102855,0.018652
25.860,271800,11.080365,1.824382,2.188300,-0.078074,-0.102988,0.026646
25.880,271820,10.788273,1.623269,2.140416,-0.115112,-0.060753,0.013989
25.900,271840,10.975020,1.398214,2.049437,-0.142291,-0.066083,-0.006795
25.920,271860,10.759542,1.149217,1.872266,-0.099790,-0.026646,-0.019052
25.940,271880,10.443508,0.962469,1.565808,-0.165207,-0.032109,-0.054758
25.960,271900,9.696517,0.799663,1.522712,-0.144689,0.024914,-0.081538
25.980,271920,8.370130,0.660800,1.288081,-0.159211,0.067948,-0.121773
26.000,271940,6.885724,0.493206,1.374272,-0.144689,0.175466,-0.169603
26.020,271960,5.276821,0.215478,1.125275,-0.204643,0.284982,-0.222363
26.040,271980,3.687071,-0.076614,1.043872,-0.240749,0.380375,-0.267928
26.060,272000,2.504335,0.316035,1.297657,-0.206242,0.582221,-0.363721
26.080,272020,3.184288,0.981623,1.513135,-0.325084,0.291510,-0.538920
26.100,272040,5.875371,1.728614,2.164358,-0.396629,0.171735,-0.686674
26.120,272060,8.207323,1.699883,2.365471,-0.248476,0.293109,-0.652833
26.140,272080,6.876147,1.268927,2.130840,-0.179462,0.658962,-0.490158
26.160,272100,4.745308,1.379060,2.121263,-0.168804,0.688406,-0.439397
26.180,272120,5.200206,1.422156,2.485181,-0.181727,0.634181,-0.473904
26.200,272140,6.224925,1.800440,2.279280,-0.183326,0.559438,-0.481897
26.220,272160,7.383718,2.039860,2.738967,-0.101123,0.424208,-0.459648
26.240,272180,8.010999,2.059013,3.241749,-0.246078,0.377444,-0.480698
26.260,272200,7.953538,2.039860,3.897760,-0.321887,0.321753,-0.501083
26.280,272220,7.608773,2.542642,4.007894,-0.490025,0.315891,-0.468708
26.300,272240,8.068460,3.715801,4.108450,-0.701329,0.291510,-0.496420
26.320,272260,8.748413,4.903325,5.281609,-0.849083,0.520268,-0.586084
26.340,272280,8.805874,5.698200,6.909666,-0.472171,0.665623,-0.617660
26.360,272300,8.825027,5.640739,6.454768,-0.060354,0.532392,-0.494021
26.380,272320,9.294291,5.248090,5.348647,-0.108184,0.506145,-0.425407
26.400,272340,9.533711,5.252879,5.817910,-0.363588,0.591147,-0.456184
26.420,272360,9.375694,5.559336,6.521805,-0.379443,0.548247,-0.459248
26.440,272380,9.069236,5.817910,6.464345,-0.228758,0.578490,-0.392100
26.460,272400,9.414001,5.463568,7.091625,-0.380242,0.711188,-0.317490
26.480,272420,9.236830,5.549759,7.800309,-0.332145,0.715585,-0.263531
26.500,272440,9.739613,5.669470,7.536947,-0.258868,0.506279,-0.207175
26.520,272460,9.495404,5.980716,7.522582,-0.171602,0.468308,-0.189455
26.540,272480,9.433155,5.999869,7.402872,0.016121,0.449789,-0.177730
26.560,272500,9.615114,5.544971,7.479486,0.036639,0.392499,-0.129234
26.580,272520,9.543288,4.850653,7.196970,0.061153,0.271259,-0.068747
26.600,272540,9.069236,4.999093,6.694188,-0.076342,0.224361,-0.089531
26.620,272560,9.074024,5.367800,6.766014,-0.140959,0.120308,-0.163075
26.640,272580,8.796297,5.209783,6.804321,0.014789,0.139360,-0.175199
26.660,272600,8.350976,4.625597,6.478710,0.002265,0.168937,-0.205309
26.680,272620,8.149862,4.884171,6.181829,-0.080871,0.181994,-0.273257
26.700,272640,8.274361,5.061342,6.469133,-0.102588,0.211305,-0.297505
26.720,272660,8.269572,4.596867,6.770802,-0.017453,0.170136,-0.302435
26.740,272680,7.886500,4.553771,6.133945,0.043167,0.130300,-0.246877
26.760,272700,7.829040,4.726154,6.177041,-0.135096,0.308564,-0.189188
26.780,272720,8.480263,5.037400,7.292738,-0.270193,0.365853,-0.248476
26.800,272740,8.446744,5.367800,8.298303,-0.082603,0.590081,-0.261933
26.820,272760,8.360553,5.698200,8.312668,-0.087799,0.559305,-0.272325
26.840,272780,9.212888,5.894525,8.978256,-0.112181,0.458715,-0.344136
26.860,272800,10.687716,6.124368,9.490616,-0.105119,0.303368,-0.393432
26.880,272820,9.356541,4.055778,8.987833,0.035706,-0.094594,-0.950605
26.900,272840,9.864111,8.959103,10.673351,-0.354528,0.409286,-0.441395
26.920,272860,10.007763,5.070919,5.679047,3.092830,2.216968,-0.854812
26.940,272880,4.065354,3.849876,4.774038,4.365588,3.408721,-3.341972
26.960,272900,2.983175,12.569559,0.991199,4.365588,3.368618,-4.365721
26.980,272920,4.132392,13.182474,-3.672705,2.119442,4.365588,-4.365721
27.000,272940,-2.676718,18.569427,-1.695095,0.235286,4.365588,-4.010793
27.020,272960,-7.220912,19.847933,4.548983,3.917132,4.365588,-1.201213
27.040,272980,-9.821015,13.196839,8.010999,2.994905,4.365588,0.698265
27.060,273000,-8.877700,9.777920,9.873688,3.295608,4.365588,-0.192652
27.080,273020,-5.942409,10.582372,9.136273,2.745229,4.365588,-1.681911
27.100,273040,-3.979163,13.737929,8.283937,0.555574,4.365588,-1.671786
27.120,273060,-3.241749,14.413095,7.374141,-1.447424,2.088666,-0.253139
27.140,273080,-3.878607,12.162544,6.129156,-2.590415,-0.443394,0.979116
27.160,273100,-4.769250,9.260772,5.042189,-2.980250,-3.023283,0.946874
27.180,273120,-5.008670,8.734048,3.825934,-3.008495,-4.365721,0.070346
27.200,273140,-3.969586,9.777920,2.896984,-2.171003,-4.365721,-0.334943
27.220,273160,-3.485958,10.706870,1.953669,-1.489259,-4.365721,0.058489
27.240,273180,-3.567361,10.797850,0.809240,-1.198548,-4.365721,0.609933
27.260,273200,0.100556,8.566454,0.656011,-2.427340,-4.365721,0.656697
27.280,273220,2.308010,7.431602,1.810017,-1.894015,-1.998335,0.083669
27.300,273240,-0.770933,8.734048,3.696647,0.036772,0.078873,-0.376645
27.320,273260,-2.715025,10.692505,2.992752,1.233055,1.033741,-0.773274
27.340,273280,-0.215478,11.971008,3.529053,0.678813,1.254772,-0.174666
27.360,273300,2.288857,9.241618,5.363012,-0.694401,1.955302,1.505247
27.380,273320,2.183512,5.190629,5.118803,-0.757020,3.373015,2.087201
27.400,273340,-0.770933,3.394978,5.468357,0.770609,3.760185,0.741432
27.420,273360,-2.418144,6.382942,5.626374,2.617328,3.587784,-1.169237
27.440,273380,-1.144428,11.707646,5.281609,2.939081,2.995971,-1.185358
27.460,273400,-0.876278,11.774684,5.200206,0.509609,3.312795,0.445392
27.480,273420,-1.896208,7.881712,5.942409,-0.753556,2.916299,1.292343
27.500,273440,-2.025495,5.918467,5.865794,0.062086,1.748527,0.720914
27.520,273460,-1.738190,6.766014,5.042189,-0.097525,0.530260,0.151084
27.540,273480,-0.962469,7.216124,4.668694,-0.930221,-0.395830,0.307364
27.560,273500,-0.814029,6.488286,4.668694,-1.167772,-1.096626,0.565433
27.580,273520,-0.545878,5.635951,4.414908,-1.152450,-1.658862,0.602472
27.600,273540,-0.766145,5.291186,3.974375,-1.175233,-2.189789,0.484962
27.620,273560,-0.809240,5.746084,3.715801,-0.942478,-2.583753,0.214769
27.640,273580,-0.033519,6.497863,3.318364,-0.599807,-2.415349,0.148686
27.660,273600,0.560243,6.895301,2.992752,-0.561170,-1.692037,0.250608
27.680,273620,0.507571,6.828263,2.925714,-0.244479,-0.679879,0.347201
27.700,273640,0.339977,6.382942,2.997540,0.045565,0.214769,0.289511
27.720,273660,-0.019154,6.220136,3.313575,0.291243,1.089299,0.104587
27.740,273680,0.004788,6.167464,3.749320,0.528262,1.734138,-0.153749
27.760,273700,-0.301669,6.828263,4.218584,0.859208,2.154616,-0.456184
27.780,273720,-0.201113,7.699753,4.400543,1.075709,2.356061,-0.464178
27.800,273740,-0.105345,7.867347,4.395754,1.061720,2.461580,-0.236219
27.820,273760,-0.081403,7.671022,4.635174,0.573427,2.445060,-0.133231
27.840,273780,-0.426168,7.752425,4.826711,0.260867,2.228559,-0.161743
27.860,273800,-0.641646,7.939173,4.984728,0.166939,1.808481,-0.132965
27.880,273820,-0.780510,7.886500,4.917690,0.287913,1.401193,-0.015588
27.900,273840,-0.837971,7.608773,4.611232,0.126170,0.915832,0.046631
27.920,273860,-1.101333,7.747637,4.558560,-0.223029,0.423142,-0.127636
27.940,273880,-1.426944,8.633492,4.548983,-0.495487,0.102322,-0.309363
27.960,273900,-1.460463,9.270349,4.572925,-0.588083,-0.016920,-0.158012
27.980,273920,-1.541866,8.858546,4.596867,-0.450322,-0.154282,0.097792
28.000,273940,-1.474828,8.269572,4.472369,-0.356260,-0.253939,0.050628
28.020,273960,-1.321599,8.370130,4.299986,-0.404757,-0.294441,-0.159611
28.040,273980,-1.225831,8.983045,4.175488,-0.425008,-0.191720,-0.209972
28.060,274000,-1.326388,9.150639,4.103662,-0.565567,-0.064351,0.010525
28.080,274020,-1.446098,8.422802,4.189853,-0.378110,0.073410,0.188789
28.100,274040,-1.470040,7.886500,4.213795,-0.116977,0.189322,0.089398
28.120,274060,-1.383849,8.087613,4.304775,-0.007594,0.288179,-0.100989
28.140,274080,-1.273715,8.686164,4.314352,0.101123,0.398495,-0.117510
28.160,274100,-1.335965,8.820239,4.237737,0.184792,0.549979,0.017853
28.180,274120,-1.441309,8.576031,4.261679,0.166672,0.766346,0.111381
28.200,274140,-1.675941,8.164227,4.333505,0.090997,0.866802,0.116977
28.220,274160,-1.771709,8.063671,4.467580,0.060620,0.923825,-0.062352
28.240,274180,-1.680730,8.499416,4.525041,0.148020,0.847884,-0.224095
28.260,274200,-1.661576,8.949526,4.491522,0.089132,0.621257,-0.241948
28.280,274220,-1.589750,9.136273,4.486734,0.089665,0.397029,-0.121907
28.300,274240,-1.584962,8.743625,4.429273,-0.011191,0.151750,-0.012524
28.320,274260,-1.762132,8.643068,4.357447,-0.037172,-0.100190,-0.102988
28.340,274280,-1.704672,8.997410,4.261679,-0.255138,-0.365587,-0.153749
28.360,274300,-1.666364,9.054871,4.185065,-0.496553,-0.633381,-0.058489
28.380,274320,-1.776498,8.901642,4.070143,-0.560637,-0.836026,0.015055
28.400,274340,-1.800440,8.753201,3.960010,-0.578623,-0.908371,0.048896
28.420,274360,-1.728614,8.566454,3.936068,-0.677214,-0.857077,0.055158
28.440,274380,-1.747767,8.590396,3.988740,-0.539986,-0.669087,-0.017587
28.460,274400,-1.704672,8.552089,3.983952,-0.411152,-0.501482,0.002132
28.480,274420,-1.843535,8.370130,3.883395,-0.230890,-0.282317,-0.000799
28.500,274440,-1.896208,8.489840,3.878607,-0.031842,-0.140825,-0.079539
28.520,274460,-1.781286,8.638280,3.878607,-0.024381,0.001732,-0.061020
28.540,274480,-1.704672,8.614338,3.921702,0.094727,0.199047,-0.013323
28.560,274500,-1.632846,8.532935,3.998317,0.226626,0.517204,-0.072211
28.580,274520,-1.561020,8.686164,4.256891,0.315492,0.861740,-0.139360
28.600,274540,-1.632846,8.901642,4.347870,0.352663,0.961530,-0.091796
28.620,274560,-1.833959,8.810662,4.376601,0.269527,0.894115,0.018652
28.640,274580,-1.814805,8.422802,4.539406,0.144156,0.846285,0.064084
28.660,274600,-1.647211,8.494628,4.740520,0.303634,0.876795,-0.127502
28.680,274620,-1.436521,9.155427,4.716578,0.342804,0.782734,-0.252606
28.700,274640,-1.268927,9.576807,4.635174,0.043700,0.523199,-0.113113
28.720,274660,-1.345541,9.078813,4.601655,-0.193052,0.115645,0.088199
28.740,274680,-1.436521,8.576031,4.520253,-0.320421,-0.333877,-0.002531
28.760,274700,-1.508347,8.954314,4.462792,-0.369717,-0.775539,-0.187057
28.780,274720,-1.177947,8.470686,3.591303,-0.973521,-0.854678,-0.073277
28.800,274740,-1.335965,8.853758,-0.670376,1.001366,0.467109,-0.244346
28.820,274760,-11.635820,12.071565,5.200206,-2.999168,0.542251,-0.223695
28.840,274780,1.747767,9.083601,11.003751,-4.365721,-1.758652,0.219965
28.860,274800,-5.190629,8.839393,6.028600,-1.111015,-4.365721,1.330314
28.880,274820,0.660800,7.015011,8.834604,-0.103121,-4.365721,1.510975
28.900,274840,4.903325,7.043741,5.913678,-1.346701,-4.365721,1.113014
28.920,274860,5.568913,7.125144,7.805098,-1.983280,-4.072346,1.321521
28.940,274880,2.935291,8.001422,5.382165,-0.487626,-1.375346,1.458216
28.960,274900,2.025495,8.743625,3.251326,0.048496,1.463678,1.069447
28.980,274920,-1.747767,7.881712,2.398990,1.398262,3.060322,0.688006
29.000,274940,0.258574,9.179369,-1.599327,0.724778,-0.547980,0.850948
29.020,274960,0.766145,9.251195,6.392519,0.965127,-0.318423,0.903041
29.040,274980,1.268927,6.924031,6.028600,-0.180662,-0.649369,1.081971
29.060,275000,3.816358,7.771579,4.884171,0.049695,-0.877994,1.261966
29.080,275020,3.193865,7.920019,3.892972,-1.048263,-0.627119,1.171369
29.100,275040,3.859453,8.513782,4.960786,-3.478934,-0.615528,1.314193
29.120,275060,3.907337,6.239290,10.601525,-1.251841,0.131632,1.078640
29.140,275080,4.525041,6.967127,5.913678,-1.254772,-0.708391,0.679213
29.160,275100,3.734955,5.137957,2.317587,-4.365721,-0.237285,-0.003864
29.180,275120,2.533065,7.149086,10.606314,-4.365721,-1.596244,-0.099390
29.200,275140,12.042834,5.152322,10.740389,1.060787,-0.961930,-0.665757
29.220,275160,2.303222,7.350199,6.253655,0.445525,-0.330147,0.001732
29.240,275180,3.682282,6.569689,7.034164,-1.207874,-1.547214,-0.049029
29.260,275200,3.849876,6.339846,8.039729,-0.288312,-2.508211,-0.150418
29.280,275220,5.176264,7.101202,8.959103,-0.633515,-2.734838,0.025980
29.300,275240,5.013458,6.655881,7.082048,-1.262100,-2.659695,0.277920
29.320,275260,5.262455,5.683835,6.330269,-1.697366,-2.904175,0.240749
29.340,275280,6.497863,5.779603,8.063671,-2.459182,-2.441596,0.075276
29.360,275300,5.793968,5.463568,6.607996,-2.204577,-1.433568,-0.154948
29.380,275320,6.598420,4.946421,6.880936,-1.999534,-0.830963,-0.425274
29.400,275340,6.497863,4.874595,6.258443,-0.792459,-0.694002,-0.445392
29.420,275360,6.181829,4.831499,5.367800,-1.920262,-0.369051,-0.799254
29.440,275380,5.367800,4.347870,8.671799,-1.831263,-1.263032,-0.944610
29.460,275400,6.004658,4.807557,5.497087,-0.514939,-2.475569,-0.718250
29.480,275420,7.489063,4.778827,4.017470,-2.570031,-1.888686,-1.147387
29.500,275440,6.526594,4.793192,5.559336,-2.502216,-0.798322,-1.321387
29.520,275460,6.440403,4.539406,6.239290,-0.706259,-0.882257,-0.967126
29.540,275480,7.536947,4.156334,6.751649,-0.170669,-1.000300,-0.787530
29.560,275500,7.647080,4.237737,6.052542,0.392899,-1.292476,-0.681211
29.580,275520,7.666234,4.276044,5.679047,0.556640,-1.491124,-0.638178
29.600,275540,6.584054,4.448427,6.095637,0.575559,-2.192586,-0.595677
29.620,275560,6.713342,4.850653,6.349423,2.139028,-3.085502,-0.286181
29.640,275580,7.345411,5.329493,5.731719,2.971456,-4.032110,-0.182527
29.660,275600,8.997410,4.793192,4.730943,1.387603,-3.845453,-0.030510
29.680,275620,8.422802,5.817910,1.853112,-0.239550,-2.483031,-0.619126
29.700,275640,8.499416,7.374141,2.628834,-1.270493,-2.377245,-0.209573
29.720,275660,8.413225,5.683835,0.986411,-1.529361,-0.769810,-0.333877
29.740,275680,8.178593,5.999869,3.567361,-2.531660,-0.495221,-0.317490
29.760,275700,7.838616,5.401319,4.046201,-3.329315,-1.143124,-0.393698
29.780,275720,7.747637,6.244078,3.744531,-3.670121,-1.642208,-0.522266
29.800,275740,8.657434,5.784391,2.724602,-3.783234,-1.588250,-0.456583
29.820,275760,8.394072,5.640739,2.533065,-1.807948,-0.687740,-0.277387
29.840,275780,7.733272,5.746084,3.883395,-0.606069,-0.962462,-0.192786
29.860,275800,8.504205,5.645528,3.945644,-0.720515,-1.164708,-0.175599
29.880,275820,8.154651,5.846641,2.935291,-0.886387,-0.789262,-0.172401
29.900,275840,7.891289,5.674258,2.863465,-0.695734,-0.820571,-0.167472
29.920,275860,8.044518,5.525817,3.179500,-0.385305,-0.800320,-0.169070
29.940,275880,8.374918,5.492299,3.457227,-0.345868,-0.640576,-0.158678
29.960,275900,8.307879,5.430049,3.189077,-0.474703,-0.152417,-0.123239
29.980,275920,8.145074,5.252879,3.313575,-0.344802,0.043567,-0.110982
30.000,275940,8.073248,5.248090,3.543418,-0.235553,-0.039436,-0.129368
30.020,275960,7.881712,5.434838,3.983952,-1.087167,-0.084069,-0.166273
30.040,275980,7.364564,5.267244,3.380613,-0.970057,-0.892783,-0.336276
30.060,276000,7.249643,5.166687,3.543418,-0.639510,-1.456084,-0.406355
30.080,276020,7.867347,6.014235,2.825158,0.346268,-2.513407,-0.674017
30.100,276040,7.608773,5.650316,2.959233,0.231156,-2.812911,-0.923426
30.120,276060,8.992621,5.616797,2.600103,-1.615695,-2.096394,-0.665090
30.140,276080,8.671799,5.951985,1.656788,-1.108484,-0.661093,-0.396496
30.160,276100,7.465121,4.855441,2.336741,-0.563568,-0.373314,-0.220098
30.180,276120,9.021352,4.908113,2.063802,-0.397828,-0.107118,0.113646
30.200,276140,7.781156,5.272032,2.825158,-0.421011,0.329747,0.217966
30.220,276160,8.178593,5.827487,2.724602,-0.096060,0.514805,0.034507
30.240,276180,8.461109,5.655105,2.523489,0.368518,0.776338,-0.085268
30.260,276200,8.556877,5.741296,2.935291,0.515871,1.045732,-0.163741
30.280,276220,8.164227,5.741296,2.940080,0.414616,0.976452,-0.234887
30.300,276240,8.508993,5.928043,3.160346,0.471372,1.187757,-0.284848
30.320,276260,7.752425,6.478710,3.203442,0.632982,1.462479,-0.271126
30.340,276280,7.613562,6.679823,3.236961,0.759285,1.714020,-0.159744
30.360,276300,7.163452,6.871359,3.433285,1.074110,2.039903,0.077274
30.380,276320,6.813898,6.560112,4.046201,0.816841,1.621291,0.191986
30.400,276340,7.048530,6.617573,3.442862,0.444593,1.088499,0.132299
30.420,276360,7.766790,6.488286,3.581726,0.328282,0.526397,0.039969
30.440,276380,8.130709,6.311116,3.457227,0.486960,0.427539,0.083536
30.460,276400,7.814674,6.153099,3.438074,0.470839,0.314026,0.050361
30.480,276420,7.671022,5.899313,3.667917,0.461779,0.243547,0.055424
30.500,276440,7.445967,6.081272,3.845088,0.220098,-0.110449,0.052227
30.520,276460,7.455544,5.980716,3.524265,0.037305,-0.279919,0.067149
30.540,276480,8.030152,5.588067,3.265691,-0.023715,-0.207841,0.089531
30.560,276500,7.378930,5.559336,3.897760,-0.162809,-0.259268,-0.086600
30.580,276520,7.915231,6.090849,2.638410,-0.257669,-0.379842,-0.028778
30.600,276540,8.159439,6.229713,2.576161,-0.113646,-0.140959,0.048763
30.620,276560,8.643068,6.536170,2.351106,0.155747,0.198381,0.246345
30.640,276580,8.101978,5.971139,3.371036,0.583286,0.661360,0.455384
30.660,276600,7.785944,6.181829,2.992752,0.303767,0.571029,0.349332
30.680,276620,7.489063,6.086061,3.864242,0.328681,0.610998,0.226760
30.700,276640,7.766790,6.311116,3.083732,0.280718,0.598208,0.162409
30.720,276660,7.513005,5.990293,3.706224,-0.547314,-0.605536,-0.193718
30.740,276680,7.948750,6.057330,3.021482,-0.917164,-1.017753,-0.251274
30.760,276700,7.891289,6.047753,2.719813,-0.916897,-0.985245,-0.188122
30.780,276720,8.049306,6.239290,2.901772,-0.597409,-0.688939,-0.105519
30.800,276740,7.977480,6.239290,2.499547,-0.279119,-0.292842,0.094727
30.820,276760,7.742848,6.363788,2.652776,0.111781,0.337342,0.249276
30.840,276780,7.412448,6.076484,2.992752,0.354262,0.687207,0.303501
30.860,276800,8.063671,5.923255,2.068590,0.556640,1.034407,0.283649
30.880,276820,7.292738,5.971139,4.793192,0.668954,0.789528,0.155348
30.900,276840,7.690176,5.564125,3.696647,0.048763,0.023315,0.025181
30.920,276860,7.886500,5.554548,3.002329,0.039037,0.178930,0.027046
30.940,276880,7.781156,5.439626,4.122815,-0.181594,-0.322420,0.030243
30.960,276900,8.259995,5.564125,2.518700,0.072744,0.269527,0.092063
30.980,276920,8.753201,6.062119,2.427721,-0.407688,-0.541718,0.020784
31.000,276940,7.675811,5.971139,4.022259,-0.287113,-0.124971,0.112314
31.020,276960,7.910442,5.985504,3.112462,-0.414616,-0.468841,0.028511
31.040,276980,7.857770,5.774815,3.303998,-0.446058,-0.479233,0.010525
31.060,277000,7.972692,5.650316,3.126827,-0.375046,-0.485495,-0.035306
31.080,277020,7.876924,5.592855,2.844312,-0.132432,0.009726,-0.013057
31.100,277040,7.623138,5.913678,3.131616,0.077807,0.389435,-0.042900
31.120,277060,7.608773,5.808333,3.634398,-0.121640,0.060087,-0.049296
31.140,277080,7.594408,5.846641,3.720589,-0.343470,-0.438198,-0.126170
31.160,277100,7.402872,5.645528,3.672705,-0.586884,-1.154982,-0.280718
31.180,277120,7.599196,5.956774,2.815581,-1.162709,-1.497919,-0.465510
31.200,277140,8.269572,6.368577,1.996764,-0.549179,-0.436466,-0.335210
31.220,277160,8.489840,6.478710,3.280056,-0.165340,-0.056757,-0.089531
31.240,277180,8.236053,6.311116,3.246537,-0.339207,-0.253806,0.060753
31.260,277200,8.020576,6.186617,2.791639,-0.407688,-0.439530,0.090064
31.280,277220,7.881712,5.908890,2.997540,-0.456051,-0.615395,0.045165
31.300,277240,8.063671,5.774815,2.518700,-0.380508,-0.676282,-0.066083
31.320,277260,8.236053,5.908890,2.552219,-0.269260,-0.464044,-0.023449
31.340,277280,8.101978,5.741296,2.647987,-0.146688,-0.154815,0.066749
31.360,277300,8.020576,5.659893,3.007117,-0.170669,-0.116444,0.131899
31.380,277320,8.130709,5.679047,2.896984,-0.220631,-0.190521,0.154282
31.400,277340,8.092402,5.669470,2.873042,-0.093528,-0.034507,0.207974
31.420,277360,7.929596,5.736507,2.858677,0.072211,0.148153,0.228092
31.440,277380,7.982268,5.688623,2.758120,0.132698,0.203711,0.175466
31.460,277400,8.082825,5.822699,3.002329,0.109516,0.229557,0.061153
31.480,277420,8.317456,5.841852,2.509123,0.148286,0.286314,0.029977
31.500,277440,8.432379,5.583278,2.959233,0.223828,0.356260,0.041035
31.520,277460,8.341399,5.640739,3.026271,0.300170,0.544783,0.059954
31.540,277480,8.508993,5.497087,2.398990,0.237152,0.517470,0.107518
31.560,277500,8.236053,5.319916,2.652776,0.145089,0.308164,0.049962
31.580,277520,7.934384,5.468357,2.949656,0.005462,0.183726,0.073011
31.600,277540,7.762002,5.578490,3.687071,-0.104187,0.034374,0.078473
31.620,277560,7.714118,5.683835,3.462016,0.126703,0.307764,0.050628
31.640,277580,7.977480,5.626374,3.620033,0.259534,0.551577,0.048363
31.660,277600,8.159439,5.521029,3.213019,0.180928,0.496420,-0.020784
31.680,277620,8.106767,5.664681,3.136404,0.019319,0.188522,-0.126969
31.700,277640,8.255207,5.832275,2.772485,-0.082603,0.049962,0.117776
31.720,277660,8.312668,5.425261,2.997540,0.027046,0.209706,0.063152
31.740,277680,7.924808,5.712565,3.438074,0.154282,0.423675,0.053426
31.760,277700,7.805098,5.679047,3.438074,-0.007727,0.106585,-0.007461
31.780,277720,8.087613,5.813122,3.002329,-0.082870,-0.068881,-0.055424
31.800,277740,7.637504,5.966351,2.987964,0.157213,0.159478,-0.137495
31.820,277760,7.268796,5.544971,3.581726,-0.000400,-0.130833,-0.355194
31.840,277780,8.255207,4.898537,3.476381,-0.152017,-0.492289,-0.301103
31.860,277800,8.954314,5.597643,2.920926,-0.029844,-0.259002,-0.100190
31.880,277820,9.375694,5.305551,2.475605,0.086201,-0.500683,0.123772
31.900,277840,8.384495,5.990293,2.940080,1.123672,-1.004031,0.063818
31.920,277860,8.188169,5.779603,2.949656,0.825234,-0.635380,-0.006795
31.940,277880,8.528147,5.880159,2.231396,0.840423,-0.609933,0.069680
31.960,277900,8.010999,5.932832,4.256891,0.126170,-0.439796,0.121907
31.980,277920,7.656657,5.736507,2.264915,-0.385438,-0.423675,-0.016254
32.000,277940,8.044518,5.770026,1.843535,-0.271658,-0.083669,-0.030377
32.020,277960,8.178593,6.071695,2.035071,-0.269260,-0.040769,-0.035706
32.040,277980,8.135497,5.865794,2.331953,-0.443660,-0.405423,-0.084069
32.060,278000,7.843405,5.894525,1.666364,-0.486560,-0.301236,-0.109916
32.080,278020,7.637504,5.765238,2.126051,-0.267795,-0.091530,-0.127636
32.100,278040,7.752425,5.870583,1.991976,-0.254072,-0.019718,-0.171335
32.120,278060,7.733272,5.932832,2.193089,-0.270726,0.000266,-0.225560
32.140,278080,7.378930,5.889736,2.930503,-0.594877,-0.247144,-0.316691
32.160,278100,7.335834,6.268020,1.982399,-1.060387,-0.483496,-0.350265
32.180,278120,7.560889,6.354211,2.001553,-0.920628,-0.237285,-0.286847
32.200,278140,7.742848,6.526594,2.308010,-0.868002,0.000799,-0.215035
32.220,278160,7.795521,6.220136,2.801216,-0.855211,0.027312,-0.158012
32.240,278180,8.245630,6.057330,2.513912,-1.003231,-0.176265,-0.139493
32.260,278200,8.887277,5.741296,2.355895,-0.918629,-0.323352,-0.104187
32.280,278220,8.695741,6.019023,2.513912,-0.848816,-0.279119,-0.147887
32.300,278240,8.647857,5.947197,2.403779,-0.618193,-0.191187,-0.130433
32.320,278260,8.585608,5.918467,2.523489,-0.391300,-0.209573,-0.091263
32.340,278280,8.322245,6.090849,2.547431,-0.237018,-0.211038,-0.055424
32.360,278300,7.814674,6.071695,2.738967,-0.162009,-0.235953,-0.078473
32.380,278320,7.527370,6.153099,2.786851,-0.224628,-0.299637,-0.172534
32.400,278340,7.709330,5.990293,2.609680,-0.278453,-0.401293,-0.216501
32.420,278360,7.718906,6.057330,2.638410,-0.209306,-0.341871,-0.163075
32.440,278380,7.891289,6.033388,2.614468,-0.271925,-0.369983,-0.121107
32.460,278400,7.982268,6.210559,2.485181,-0.323352,-0.479899,-0.089132
32.480,278420,7.565677,6.177041,2.686294,-0.365054,-0.570096,-0.085268
32.500,278440,7.805098,6.157887,2.312799,-0.267129,-0.377711,-0.076741
32.520,278460,8.111555,5.995081,2.715025,-0.132032,-0.194651,-0.027046
32.540,278480,8.106767,6.110003,2.418144,-0.184259,-0.205443,0.004397
32.560,278500,8.159439,6.421249,2.236184,-0.105519,-0.113913,0.160410
32.580,278520,8.130709,5.621585,2.609680,-0.055424,-0.161743,0.168404
32.600,278540,8.346188,5.932832,2.394202,-0.236752,-0.380775,0.143224
32.620,278560,7.862558,5.889736,2.231396,-0.185325,-0.394098,0.181194
32.640,278580,8.121132,5.793968,2.097321,-0.157080,-0.349865,0.175066
32.660,278600,8.188169,5.626374,2.427721,-0.183726,-0.368118,0.153882
32.680,278620,8.159439,5.832275,2.015918,-0.194384,-0.377444,0.118176
32.700,278640,7.881712,5.899313,2.025495,-0.092729,-0.267928,0.070346
32.720,278660,8.149862,5.937620,2.082955,0.044899,-0.021983,0.051427
32.740,278680,8.006210,6.119579,2.068590,0.191453,0.174533,0.088865
32.760,278700,8.121132,6.042965,2.106898,0.178663,0.225161,0.125371
32.780,278720,8.054094,5.774815,1.996764,0.240216,0.325084,0.106718
32.800,278740,8.173804,5.961562,1.934515,0.274456,0.396763,0.076342
32.820,278760,8.844181,5.607220,2.173935,0.304700,0.482830,0.087799
32.840,278780,8.365341,5.645528,2.130840,0.305499,0.475636,0.095127
32.860,278800,8.078036,5.468357,2.188300,0.254338,0.409553,0.049296
32.880,278820,7.800309,5.554548,2.140416,0.172801,0.338407,-0.024914
32.900,278840,8.101978,5.774815,1.704672,0.150818,0.387436,-0.036772
32.920,278860,8.226477,5.899313,2.164358,0.246211,0.457783,0.051560
32.940,278880,8.226477,5.272032,2.844312,0.074609,0.367185,0.073677
32.960,278900,7.714118,5.880159,2.437297,-0.140426,0.198515,0.042368
32.980,278920,8.542512,5.770026,2.624045,-0.282051,-0.026513,0.109916
33.000,278940,8.322245,6.363788,1.996764,-0.430337,-0.185325,0.244479
33.020,278960,7.886500,5.568913,2.375048,-0.195450,-0.040902,0.160943
33.040,278980,8.599973,5.449203,2.442086,-0.169470,-0.085002,0.077674
33.060,279000,7.920019,5.348647,2.183512,0.070746,0.038904,0.027446
33.080,279020,8.738836,5.645528,2.398990,0.273257,0.102721,0.023582
33.100,279040,8.719683,5.669470,2.734178,0.274456,0.059821,0.085401
33.120,279060,8.920795,5.679047,2.935291,-0.006528,-0.080738,0.121773
33.140,279080,8.681376,5.669470,2.590526,-0.302435,-0.231556,0.156014
33.160,279100,8.327033,5.583278,2.197877,-0.508144,-0.319755,0.083536
33.180,279120,8.082825,5.430049,2.015918,-0.513606,-0.316291,-0.043833
33.200,279140,7.963115,5.224148,1.996764,-0.249942,-0.098591,-0.218100
33.220,279160,8.350976,5.779603,2.068590,0.011191,0.211038,-0.216501
33.240,279180,8.987833,6.148310,2.346318,0.161743,0.424208,-0.087400
33.260,279200,8.614338,5.530606,2.499547,0.032375,0.171868,-0.011325
33.280,279220,8.327033,5.870583,2.164358,0.056757,-0.028112,0.010792
33.300,279240,7.733272,5.181053,2.207454,0.148420,0.110715,-0.037305
33.320,279260,8.197746,5.803545,2.700660,0.209440,0.363855,-0.133897
33.340,279280,8.676587,5.698200,2.566584,-0.465910,-0.372648,-0.075942
33.360,279300,8.628703,5.755661,1.388637,-0.404623,-0.399827,-0.063285
33.380,279320,8.676587,5.942409,2.044648,-0.144956,-0.413017,-0.069813
33.400,279340,8.935161,5.947197,1.690306,0.007328,-0.391966,0.006395
33.420,279360,8.858546,5.664681,1.426944,0.478300,-0.078740,0.081671
33.440,279380,8.307879,5.549759,1.848324,0.693069,-0.046231,0.075675
33.460,279400,7.699753,5.650316,2.322376,0.304700,-0.085002,0.022116
33.480,279420,7.694964,5.966351,1.891419,0.014789,-0.274323,-0.126436
33.500,279440,8.140285,5.832275,1.522712,-0.033974,-0.322153,-0.107384
33.520,279460,7.647080,5.947197,1.853112,-0.263132,-0.624721,-0.108450
33.540,279480,7.254431,6.009446,0.292093,-0.354928,-0.786064,-0.094328
33.560,279500,7.307104,6.272809,1.972822,-0.214369,-0.510409,-0.141225
33.580,279520,7.948750,6.306327,0.895431,-0.401825,-0.774606,-0.062752
33.600,279540,8.360553,6.019023,1.149217,-0.347867,-0.316025,0.035839
33.620,279560,7.987057,6.478710,2.470816,-0.382907,-0.271126,0.077141
33.640,279580,8.221688,5.995081,2.140416,-0.446591,-0.830963,0.046897
33.660,279600,8.403648,5.884948,1.130063,-0.302168,-0.866802,-0.060887
33.680,279620,8.202535,5.549759,1.628057,-0.129234,-0.625254,-0.177064
33.700,279640,8.245630,5.516241,1.599327,-0.077807,-1.459149,-0.241815
33.720,279660,8.504205,5.568913,0.229843,-0.063551,-0.797256,-0.163342
33.740,279680,8.279149,5.779603,0.785298,-0.044766,-0.261000,-0.119908
33.760,279700,8.264784,5.841852,1.005565,-0.095660,-0.222629,-0.108717
33.780,279720,8.025364,5.808333,1.532289,-0.174266,-0.367985,-0.061420
33.800,279740,8.317456,5.592855,0.191536,-0.225960,-0.530660,0.003064
33.820,279760,8.307879,6.086061,1.273715,-0.186524,-0.283649,-0.123239
33.840,279780,8.389283,5.583278,1.474828,0.054891,0.736236,0.004263
33.860,279800,8.212111,5.516241,1.082179,0.217034,1.594911,0.106452
33.880,279820,8.044518,5.889736,0.809240,0.058489,1.410519,0.095260
33.900,279840,8.662222,5.516241,1.005565,-0.090730,1.013224,0.066749
33.920,279860,8.556877,5.688623,1.149217,0.101522,1.104087,0.033175
33.940,279880,8.317456,5.870583,1.326388,0.126170,0.859075,0.009326
33.960,279900,8.073248,5.688623,1.125275,0.134963,0.921028,0.104720
33.980,279920,8.212111,5.793968,1.723825,0.073144,0.955002,0.158678
34.000,279940,8.547300,5.956774,2.049437,0.296839,1.214536,0.072345
34.020,279960,8.489840,5.746084,2.336741,0.256337,1.001233,-0.049296
34.040,279980,8.413225,5.492299,2.154782,0.157613,0.813510,-0.006395
34.060,280000,8.245630,5.564125,2.355895,-0.020917,0.595677,0.145222
34.080,280020,8.370130,6.042965,2.360683,-0.125237,0.332412,0.250208
34.100,280040,8.580819,6.220136,2.264915,-0.015988,0.151217,0.188256
34.120,280060,8.413225,6.047753,2.116474,0.025181,-0.122972,0.073810
34.140,280080,8.480263,5.961562,1.671153,0.044899,-0.172268,0.075942
34.160,280100,8.307879,5.310339,1.355118,0.057956,-0.090064,0.121240
34.180,280120,6.344635,5.185841,0.565032,0.950605,-0.172135,0.201046
34.200,280140,9.442732,5.066131,1.580173,1.497386,0.146021,0.050894
34.220,280160,8.767567,5.272032,2.475605,1.117943,0.620591,-0.391966
34.240,280180,8.738836,5.779603,4.405331,0.992573,1.029611,0.018786
34.260,280200,8.628703,5.616797,2.935291,0.443394,0.953403,0.126303
34.280,280220,8.844181,5.971139,2.111686,0.122173,0.611931,0.148420
34.300,280240,8.279149,5.856217,2.039860,0.018919,0.491890,0.209440
34.320,280260,8.580819,6.153099,-0.598550,0.369583,0.324285,0.056623
34.340,280280,8.092402,5.923255,3.347094,0.252740,0.972588,0.175466
34.360,280300,8.236053,5.597643,2.882619,0.107384,0.926357,0.138028
34.380,280320,8.925584,5.554548,2.054225,-0.021184,0.527063,0.118443
