Time(s),Time(ms),AccelX,AccelY,AccelZ,GyroX,GyroY,GyroZ
0.000,596900,9.763555,5.844246,11.178528,0.948225,0.060129,0.992922
0.020,596920,9.828198,5.940014,11.326968,0.924812,0.050551,1.004629
0.040,596940,9.864111,5.944803,11.329363,0.900334,0.055872,0.973234
0.060,596960,9.907207,5.978322,11.334151,0.885435,0.025009,0.933326
0.080,596980,10.070012,6.066907,11.439496,0.893949,-0.018092,0.905656
0.100,597000,10.170568,6.033388,11.535264,0.896610,-0.040973,0.935986
0.120,597020,9.682152,5.992687,11.590330,0.858298,-0.028734,1.024849
0.140,597040,9.191340,6.265626,11.860875,0.877454,-0.117065,1.108391
0.160,597060,9.035717,6.833052,12.677298,0.899270,-0.037780,1.127015
0.180,597080,9.696517,7.266402,13.036428,0.877454,-0.027670,1.104134
0.200,597100,10.058042,7.201759,12.797009,0.837013,0.086202,1.132868
0.220,597120,10.778696,7.594408,12.955026,0.827435,0.055340,1.165859
0.240,597140,11.235989,7.711724,12.773067,0.812004,-0.030863,1.230776
0.260,597160,10.661380,7.783550,12.737153,0.827435,-0.120790,1.329217
0.280,597180,11.176133,8.968679,13.400347,0.906720,-0.284680,1.339327
0.300,597200,11.379641,8.698134,13.273455,0.857765,-0.141010,1.390942
0.320,597220,10.568007,9.071630,12.998121,0.840738,-0.058532,1.432979
0.340,597240,11.171345,9.018958,13.158532,0.839142,-0.106423,1.342520
0.360,597260,10.108319,8.415619,12.191275,0.726866,-0.026606,1.264832
0.380,597280,9.574412,7.936779,11.793838,0.760921,-0.135157,1.174373
0.400,597300,9.785102,7.747637,11.451467,0.797105,-0.178258,1.122758
0.420,597320,10.436325,7.934384,10.936713,0.761985,-0.153248,1.117969
0.440,597340,10.409989,8.178593,10.826580,0.722077,-0.091523,1.138721
0.460,597360,9.646238,7.977480,11.066000,0.733783,-0.026606,1.130207
0.480,597380,9.313444,7.680599,11.245565,0.676847,0.041505,1.071675
0.500,597400,9.399636,7.405266,11.417948,0.614590,0.145267,1.000904
0.520,597420,9.586384,6.976704,11.360487,0.578938,0.238386,0.987601
0.540,597440,9.414001,6.572083,11.231200,0.536902,0.312350,1.052519
0.560,597460,9.220071,6.363788,11.235989,0.570957,0.306497,1.113712
0.580,597480,9.327810,6.133945,11.307815,0.590113,0.329910,1.137657
0.600,597500,9.459491,5.884948,11.288661,0.604480,0.324589,1.142446
0.620,597520,9.753978,5.808333,11.329363,0.631618,0.263928,1.122225
0.640,597540,10.012551,5.640739,11.312603,0.637471,0.221891,1.098812
0.660,597560,9.993398,5.501875,11.224017,0.648113,0.166551,1.090299
0.680,597580,10.005369,5.691018,11.403583,0.663544,0.088331,1.105730
0.700,597600,9.821015,5.880159,11.599907,0.667269,0.060129,1.134464
0.720,597620,9.574412,6.074090,11.640609,0.690682,0.027138,1.162134
0.740,597640,9.921572,6.478710,11.877635,0.717288,-0.023413,1.158409
0.760,597660,10.398018,6.749255,11.894394,0.752939,-0.069175,1.138721
0.780,597680,10.905589,7.036559,11.894394,0.802426,-0.152716,1.118501
0.800,597700,11.070788,7.003040,11.894394,0.831692,-0.210184,1.130739
0.820,597720,11.307815,7.343017,12.081141,0.906720,-0.317671,1.126482
0.840,597740,11.733982,7.405266,12.186486,0.898206,-0.298515,1.142978
0.860,597760,10.886436,7.005434,11.927913,0.873729,-0.281488,1.235033
0.880,597780,10.647015,7.122750,12.385205,0.912573,-0.402277,1.247804
0.900,597800,10.884041,7.699753,12.847286,0.908316,-0.498589,1.170116
0.920,597820,12.172121,8.652645,13.357251,0.923215,-0.643856,1.008885
0.940,597840,11.796232,8.274361,13.450625,0.849784,-0.548608,0.990261
0.960,597860,11.066000,9.033323,13.833697,0.872665,-0.636407,1.024849
0.980,597880,11.681310,8.935161,14.599842,0.861490,-0.531048,1.005161
1.000,597900,10.912771,7.580042,13.419500,0.766242,-0.264992,1.084978
1.020,597920,10.163386,6.246472,12.866440,0.816793,-0.259671,1.216409
1.040,597940,9.871294,5.935226,12.892776,0.874261,-0.299047,1.272813
1.060,597960,10.929531,6.306327,13.206416,0.885967,-0.258075,1.172244
1.080,597980,11.118672,6.325481,13.019669,0.823710,-0.079285,1.111051
1.100,598000,10.216059,6.303933,12.775460,0.775820,0.058532,1.067950
1.120,598020,10.141838,6.684611,12.998121,0.775820,0.132496,0.931197
1.140,598040,10.398018,6.924031,12.823344,0.760389,0.235726,0.780077
1.160,598060,10.589554,6.593631,12.334928,0.788059,0.270313,0.722077
1.180,598080,10.692505,6.160281,11.789049,0.838609,0.197414,0.759857
1.200,598100,10.840945,5.966351,11.552023,0.817325,0.159102,0.841802
1.220,598120,10.429143,5.650316,11.077971,0.804022,0.125579,0.920555
1.240,598140,9.840169,5.434838,10.958261,0.915234,-0.060661,0.971105
1.260,598160,9.536105,5.425261,10.867282,0.918958,-0.057468,0.957803
1.280,598180,9.655815,5.372589,10.737994,0.904591,0.009046,0.922151
1.300,598200,9.674969,5.248090,10.611102,0.895013,0.072367,0.908848
1.320,598220,9.885659,5.284003,10.673351,0.917894,0.055340,0.902995
1.340,598240,10.335769,5.365406,10.869676,0.907784,0.058532,0.920023
1.360,598260,10.395624,5.432444,11.089942,0.898738,0.058000,0.957271
1.380,598280,10.457873,5.815516,11.528081,0.893949,0.019688,0.980151
1.400,598300,10.852917,6.421249,12.004527,0.893949,-0.025009,0.974298
1.420,598320,11.068395,6.957550,12.368446,0.865215,-0.021817,0.971105
1.440,598340,11.377247,7.275979,12.758701,0.836481,-0.014367,0.993454
1.460,598360,11.779472,7.441179,12.811374,0.833820,-0.054275,1.046665
1.480,598380,12.186486,7.381324,12.512098,0.796040,-0.055872,1.129675
1.500,598400,11.659762,7.050924,12.117055,0.810407,-0.130368,1.233969
1.520,598420,10.951078,6.854599,12.224793,0.854041,-0.227212,1.308465
1.540,598440,10.467450,7.335834,12.497733,0.890224,-0.268717,1.332410
1.560,598460,11.915942,8.700529,13.227964,0.959399,-0.298515,1.228648
1.580,598480,11.384429,8.113950,12.591106,0.822114,0.016495,1.233969
1.600,598500,11.444284,8.892065,12.701240,0.889692,-0.088863,1.174373
1.620,598520,12.107478,8.719683,13.000515,0.813068,-0.015963,1.087638
1.640,598540,10.785878,7.979874,11.987768,0.697600,0.088863,1.068482
1.660,598560,10.230424,7.433996,11.607090,0.717820,-0.001064,1.025913
1.680,598580,9.430760,6.986280,11.030087,0.650242,0.086202,1.006225
1.700,598600,10.077195,7.515399,11.039664,0.717820,0.031927,0.967913
1.720,598620,11.358093,8.226477,11.063606,0.752407,0.073964,0.969509
1.740,598640,10.211270,7.860164,11.003751,0.735380,0.221891,1.000372
1.760,598660,8.985439,7.654263,11.559206,0.784866,0.201671,0.959931
1.780,598680,9.097966,7.639898,12.236765,0.760389,0.238919,0.854573
1.800,598700,9.677363,7.285556,12.133814,0.713563,0.286277,0.796040
1.820,598720,10.177752,6.871359,11.846510,0.678976,0.277231,0.839142
1.840,598740,10.247183,6.576872,11.702858,0.665141,0.196350,0.943968
1.860,598760,9.933543,6.268020,11.578360,0.614590,0.142074,1.030170
1.880,598780,9.291897,5.987898,11.394006,0.579471,0.154313,1.097216
1.900,598800,9.153033,5.947197,11.310209,0.585324,0.168680,1.124354
1.920,598820,9.464279,5.916072,11.185710,0.585324,0.234130,1.134464
1.940,598840,9.543288,5.798757,11.077971,0.584792,0.295855,1.141381
1.960,598860,9.617508,5.779603,11.137826,0.610865,0.288937,1.123822
1.980,598880,9.844957,5.736507,11.180922,0.624168,0.260735,1.090299
2.000,598900,9.653421,5.688623,11.159374,0.636939,0.202735,1.058904
2.020,598920,9.859323,6.126762,11.322180,0.671526,0.051615,0.983876
2.040,598940,10.084377,6.636727,11.398794,0.668866,-0.037780,0.898206
2.060,598960,10.462662,7.225701,11.643003,0.700792,-0.125579,0.820518
2.080,598980,10.579977,7.374141,11.832145,0.690150,-0.106423,0.813600
2.100,599000,10.821792,7.860164,11.935096,0.710370,-0.179322,0.839142
2.120,599020,11.659762,7.967903,11.935096,0.686957,-0.197414,0.880646
2.140,599040,10.548853,7.299921,11.477803,0.622572,-0.191028,1.030702
2.160,599060,9.835381,7.335834,11.896789,0.712499,-0.389506,1.113180
2.180,599080,10.639832,8.269572,12.737153,0.775288,-0.499122,1.078592
2.200,599100,11.616667,8.571242,13.055582,0.794976,-0.448571,1.028041
2.220,599120,10.946290,8.621520,13.108254,0.807215,-0.398020,1.055711
2.240,599140,11.626244,9.136273,14.077906,0.848187,-0.395892,0.992390
2.260,599160,11.008539,8.559271,13.903130,0.714627,-0.118661,1.017399
2.280,599180,11.099519,8.226477,13.929465,0.797637,-0.126643,1.092959
2.300,599200,11.640609,7.173028,13.814544,0.834352,-0.073964,1.216409
2.320,599220,11.003751,6.148310,13.261483,0.864683,-0.097377,1.339327
2.340,599240,11.449073,6.081272,13.407530,0.934922,-0.258075,1.333474
2.360,599260,10.910378,5.700594,13.321339,0.822114,-0.137285,1.276538
2.380,599280,9.483433,5.391742,13.046005,0.767838,-0.032991,1.201510
2.400,599300,9.220071,5.530606,13.019669,0.748682,0.044165,1.064225
2.420,599320,9.720459,5.956774,12.258312,0.722077,0.148459,0.917362
2.440,599340,10.809821,6.373365,11.532869,0.809343,0.081945,0.774756
2.460,599360,11.042058,6.284780,11.197681,0.852976,0.033523,0.702389
2.480,599380,10.441113,5.863400,11.456255,0.913637,-0.090991,0.693875
2.500,599400,10.168175,5.681441,11.643003,0.841270,-0.123450,0.701324
2.520,599420,10.251971,5.793968,11.532869,0.890224,-0.233065,0.718352
2.540,599440,10.263943,5.923255,11.520899,0.826371,-0.130900,0.779545
2.560,599460,10.036493,5.935226,11.575965,0.806683,-0.051615,0.862555
2.580,599480,9.902418,5.942409,11.638214,0.809875,0.020752,0.939179
2.600,599500,10.220847,5.983110,11.631032,0.830628,0.047358,0.975894
2.620,599520,10.534488,5.916072,11.563994,0.847655,0.043101,1.004629
2.640,599540,10.323798,5.793968,11.528081,0.915234,-0.031395,1.044005
2.660,599560,10.070012,5.889736,11.923124,0.966849,-0.096312,1.071675
2.680,599580,10.417171,6.313510,12.354081,1.028041,-0.144203,1.087106
2.700,599600,10.867282,6.483498,12.430696,1.008885,-0.110679,1.127015
2.720,599620,11.190498,6.708553,12.459426,0.973234,-0.068110,1.179694
2.740,599640,11.978191,6.890512,12.430696,1.009950,-0.148992,1.213749
2.760,599660,12.088325,6.756437,12.023681,0.979619,-0.142074,1.307401
2.780,599680,11.405977,6.500257,11.781867,1.030170,-0.213377,1.426594
2.800,599700,11.025299,6.744466,11.971008,1.079656,-0.275634,1.501090
2.820,599720,11.520899,7.884106,12.488156,1.113712,-0.302240,1.471823
2.840,599740,12.758701,8.109161,12.260707,1.089234,-0.217634,1.412227
2.860,599760,12.097901,8.353370,11.834539,1.033895,-0.146863,1.434575
2.880,599780,13.407530,8.889671,12.394782,1.064225,-0.280423,1.330281
2.900,599800,12.246342,8.267179,11.365275,0.873197,-0.135689,1.283988
2.920,599820,10.941502,7.728483,11.013328,0.823178,-0.161230,1.249400
2.940,599840,9.749189,7.374141,10.963050,0.782206,-0.111212,1.219602
2.960,599860,9.102755,7.364564,10.608707,0.746554,-0.012239,1.177033
2.980,599880,9.904813,8.001422,10.498574,0.764646,0.106423,1.080189
3.000,599900,10.117896,7.963115,10.548853,0.759857,0.313414,0.984940
3.020,599920,9.617508,7.572860,10.635044,0.755600,0.464534,0.902995
3.040,599940,10.024523,7.479486,11.109096,0.738572,0.539030,0.819453
3.060,599960,10.591949,7.149086,11.159374,0.663544,0.640664,0.820518
3.080,599980,10.766725,6.787562,11.125855,0.570957,0.729526,0.932793
3.100,600000,10.541670,6.461950,11.123461,0.660884,0.578406,1.058372
3.120,600020,10.388441,6.200983,11.161768,0.688554,0.500718,1.142978
3.140,600040,10.137050,5.817910,11.116279,0.691214,0.449635,1.176501
3.160,600060,9.986216,5.530606,11.015722,0.705581,0.371947,1.173840
3.180,600080,10.048465,5.470751,11.018116,0.725269,0.286277,1.146703
3.200,600100,10.067618,5.420473,11.001357,0.703985,0.257010,1.134996
3.220,600120,10.115502,5.410896,10.991780,0.708774,0.204863,1.157345
3.240,600140,10.153810,5.499481,10.967838,0.697067,0.153781,1.194593
3.260,600160,9.945514,5.616797,11.046846,0.708242,0.118661,1.235565
3.280,600180,9.902418,5.901707,11.188105,0.726866,0.054808,1.236098
3.300,600200,9.840169,6.244078,11.324574,0.739636,0.001596,1.195657
3.320,600220,10.438720,7.122750,11.741165,0.781673,-0.101101,1.097216
3.340,600240,10.953473,7.474698,11.994950,0.794444,-0.126111,1.022720
3.360,600260,11.604695,7.867347,12.124237,0.881711,-0.220827,1.009950
3.380,600280,12.911930,7.671022,12.052411,0.902463,-0.255946,1.082849
3.400,600300,11.724405,6.849811,11.549629,0.865215,-0.295322,1.332942
3.420,600320,11.786655,7.833828,12.583924,0.974298,-0.619911,1.407438
3.440,600340,13.278243,7.924808,13.280637,0.923215,-0.589049,1.291437
3.460,600360,12.457031,8.034941,13.031640,0.812536,-0.552865,1.227584
3.480,600380,13.488933,8.552089,13.809755,0.804022,-0.616718,1.064757
3.500,600400,11.923124,7.522582,13.148955,0.631618,-0.291066,1.017399
3.520,600420,11.860875,6.959944,12.957419,0.687489,-0.243175,1.007289
3.540,600440,12.119449,6.368577,12.780249,0.725802,-0.155377,1.065289
3.560,600460,12.196063,5.980716,12.916718,0.746554,-0.141542,1.112115
3.580,600480,12.057199,5.760449,13.125013,0.734847,-0.160698,1.090299
3.600,600500,10.900801,5.714960,12.969391,0.710902,-0.153781,1.005161
3.620,600520,10.517728,6.047753,12.995727,0.703985,-0.117065,0.788059
3.640,600540,10.486604,6.047753,12.847286,0.689086,-0.020220,0.577342
3.660,600560,10.635044,5.849035,12.385205,0.678444,0.034055,0.465066
3.680,600580,10.778696,5.710171,12.059594,0.708242,0.006917,0.441121
3.700,600600,10.630256,5.446809,11.717223,0.730058,-0.052679,0.479966
3.720,600620,10.153810,5.257667,11.453861,0.715159,-0.061193,0.550204
3.740,600640,9.615114,5.295974,11.310209,0.774224,-0.136221,0.599691
3.760,600660,9.232041,5.482722,11.185710,0.791251,-0.118661,0.612994
3.780,600680,9.160215,5.671864,11.197681,0.802958,-0.069175,0.594370
3.800,600700,9.327810,5.791574,11.288661,0.824242,-0.013303,0.579471
3.820,600720,9.670180,5.880159,11.461043,0.840206,0.009046,0.587984
3.840,600740,10.077195,5.942409,11.537658,0.876389,-0.024477,0.626829
3.860,600760,10.271125,6.052542,11.506534,0.861490,-0.042569,0.710902
3.880,600780,10.376471,6.366182,11.863270,0.903527,-0.102698,0.823710
3.900,600800,10.187328,6.775591,12.265495,0.819453,0.009046,0.927472
3.920,600820,10.134656,7.273585,12.684481,0.905123,-0.035652,0.979087
3.940,600840,10.433931,7.654263,12.871228,0.855105,0.076092,1.013674
3.960,600860,11.142614,7.764396,12.665327,0.906720,0.112808,1.050922
3.980,600880,11.719617,7.524976,12.222400,0.934390,0.137285,1.149363
4.000,600900,11.525687,7.369353,11.896789,0.991326,0.064386,1.306336
4.020,600920,10.467450,7.501034,12.105083,1.040280,0.007450,1.427658
4.040,600940,10.931925,8.588001,12.849681,1.071675,0.003725,1.393071
4.060,600960,10.828975,8.279149,12.337321,0.991326,0.202203,1.369658
4.080,600980,10.553641,8.748413,12.148179,0.975362,0.234130,1.323364
4.100,601000,10.848128,8.331821,12.193669,0.916830,0.311818,1.213217
4.120,601020,9.794679,7.323863,11.413159,0.865215,0.284680,1.228648
4.140,601040,9.813833,7.522582,11.465832,0.867876,0.222955,1.237162
4.160,601060,10.532093,8.252813,11.355699,0.819453,0.332570,1.189804
4.180,601080,10.268731,8.262390,11.111490,0.784334,0.490076,1.085510
4.200,601100,9.390059,7.891289,11.216835,0.796040,0.557654,0.965784
4.220,601120,9.591172,7.742848,11.678916,0.801894,0.551269,0.796573
4.240,601140,10.041282,7.383718,11.643003,0.707178,0.619911,0.706645
4.260,601160,9.947908,6.811504,11.295844,0.622572,0.674719,0.744425
4.280,601180,9.560047,6.373365,11.331757,0.583195,0.659820,0.835417
4.300,601200,9.320627,6.093243,11.398794,0.623636,0.565636,0.912041
4.320,601220,9.121908,5.997475,11.468226,0.604480,0.553397,0.976427
4.340,601240,9.184157,6.167464,11.516110,0.607140,0.535837,1.024317
4.360,601260,9.409213,6.354211,11.470620,0.642792,0.475177,1.058904
4.380,601280,9.607931,6.485892,11.420342,0.674719,0.421965,1.075932
4.400,601300,9.636662,6.617573,11.568783,0.715159,0.344277,1.095620
4.420,601320,9.564836,6.718130,11.616667,0.753471,0.262864,1.114244
4.440,601340,9.526528,6.835446,11.750742,0.780077,0.187836,1.124886
4.460,601360,9.655815,7.129933,11.908759,0.798169,0.091523,1.119565
4.480,601380,9.885659,7.450756,12.026075,0.852976,-0.039908,1.088702
4.500,601400,10.335769,7.809886,12.258312,0.857233,-0.123982,1.039748
4.520,601420,10.876859,8.001422,12.349293,0.832224,-0.191028,1.022720
4.540,601440,11.180922,7.905654,12.172121,0.808811,-0.244240,1.071143
4.560,601460,11.355699,7.414843,11.872847,0.780609,-0.277763,1.174373
4.580,601480,10.350134,6.715736,11.446678,0.715691,-0.285212,1.326025
4.600,601500,9.404425,6.718130,11.738770,0.710370,-0.373543,1.394667
4.620,601520,9.454702,7.539341,12.703634,0.767306,-0.406534,1.297823
4.640,601540,11.458650,8.001422,13.196839,0.768903,-0.368222,1.106262
4.660,601560,10.268731,7.192182,12.526464,0.687489,-0.192625,1.118501
4.680,601580,11.101913,8.552089,13.860034,0.826371,-0.399617,1.056244
4.700,601600,11.743559,8.595184,14.343662,0.774224,-0.250093,0.990794
4.720,601620,11.652579,7.635109,13.436260,0.803490,-0.169212,1.045601
4.740,601640,11.441890,6.629545,13.218388,0.941307,-0.272974,1.167455
4.760,601660,11.207258,6.174646,13.287820,0.987601,-0.365561,1.224923
4.780,601680,10.771513,6.057330,13.476961,0.881178,-0.310754,1.172776
4.800,601700,9.686940,6.112397,13.383588,0.786995,-0.189432,1.064757
4.820,601720,9.777920,6.478710,13.383588,0.767306,-0.081413,0.874261
4.840,601740,10.081984,6.536170,12.909535,0.728462,0.085138,0.736976
4.860,601760,10.046070,6.186617,12.361263,0.763049,0.155909,0.705049
4.880,601780,10.201694,5.985504,12.200851,0.828499,0.089927,0.762517
4.900,601800,9.955091,5.889736,12.016499,0.866279,-0.007450,0.860426
4.920,601820,9.363723,5.980716,11.911154,0.894481,-0.100037,0.927472
4.940,601840,9.188946,6.157887,11.808203,0.954610,-0.209652,0.919491
4.960,601860,9.074024,6.387730,11.678916,0.963656,-0.243175,0.862555
4.980,601880,9.078813,6.543353,11.674128,0.984940,-0.270845,0.788059
5.000,601900,9.327810,6.636727,11.647791,0.974298,-0.259671,0.752407
5.020,601920,9.816227,6.653487,11.690886,0.980684,-0.271910,0.771563
5.040,601940,10.079589,6.615179,11.686098,0.937582,-0.242643,0.849252
5.060,601960,9.959879,6.562507,11.659762,0.929601,-0.278295,0.969509
5.080,601980,10.153810,6.756437,11.992557,0.931729,-0.263396,1.105198
5.100,602000,10.354922,6.952762,12.138602,0.904059,-0.195285,1.236630
5.120,602020,10.697293,7.103596,12.306197,0.939179,-0.164423,1.352630
5.140,602040,10.994174,7.000646,12.282255,0.922683,-0.087266,1.453200
5.160,602060,11.322180,6.873753,12.133814,0.966849,-0.125579,1.518649
5.180,602080,11.310209,6.806715,11.935096,0.983344,-0.161762,1.538337
5.200,602100,10.781090,6.833052,11.908759,1.021656,-0.189432,1.530888
5.220,602120,10.608707,7.532158,12.320562,1.064757,-0.185707,1.495236
5.240,602140,11.743559,7.888895,12.457031,1.074335,-0.088331,1.426062
5.260,602160,11.487380,8.154651,11.994950,1.024317,0.056404,1.438832
5.280,602180,12.378023,8.556877,12.236765,1.030170,0.046826,1.397328
5.300,602200,11.446678,7.934384,11.525687,0.946096,0.102698,1.390410
5.320,602220,10.364499,7.297527,10.939108,0.935986,0.023945,1.389878
5.340,602240,10.062830,7.541735,10.658986,0.993986,-0.059064,1.354227
5.360,602260,10.498574,8.355764,10.601525,1.020060,-0.050019,1.221198
5.380,602280,10.426748,8.518570,10.623073,1.001968,0.107487,1.054647
5.400,602300,10.012551,8.109161,10.721235,0.982812,0.247432,0.938114
5.420,602320,10.742783,7.809886,10.781090,0.912573,0.329378,0.837545
5.440,602340,10.924743,7.331046,10.568007,0.805618,0.412919,0.834885
5.460,602360,10.668563,6.871359,10.625467,0.710370,0.441653,0.921619
5.480,602380,10.122684,6.538565,10.625467,0.656627,0.459213,0.998243
5.500,602400,9.653421,6.227319,10.826580,0.652902,0.453360,1.051454
5.520,602420,9.550470,5.980716,10.838552,0.633746,0.466131,1.091895
5.540,602440,9.667787,5.834670,10.867282,0.632150,0.469323,1.142446
5.560,602460,9.923966,5.920861,10.893618,0.657691,0.373543,1.173840
5.580,602480,10.108319,6.062119,10.958261,0.652370,0.325121,1.196189
5.600,602500,9.950302,6.047753,10.922348,0.669398,0.288937,1.229180
5.620,602520,9.921572,6.220136,10.967838,0.692278,0.245304,1.275474
5.640,602540,9.926360,6.493075,11.149797,0.737508,0.187304,1.315382
5.660,602560,10.089166,6.813898,11.420342,0.785930,0.113340,1.326025
5.680,602580,10.716447,7.374141,11.729194,0.867876,-0.025009,1.305804
5.700,602600,11.506534,7.975086,11.980585,0.889692,-0.121322,1.271217
5.720,602620,12.222400,8.231265,12.066776,0.922151,-0.197414,1.272813
5.740,602640,12.756307,8.157045,11.918336,0.943968,-0.322460,1.341988
5.760,602660,12.876017,7.546524,11.602302,0.915234,-0.392167,1.470759
5.780,602680,12.061988,6.639122,11.104307,0.886500,-0.495397,1.635714
5.800,602700,11.200075,6.193800,11.106702,0.890756,-0.644920,1.703825
5.820,602720,11.037270,6.337452,11.626244,0.891821,-0.721545,1.672962
5.840,602740,12.289437,6.900089,11.975797,0.893417,-0.747618,1.533016
5.860,602760,12.629414,6.579266,11.434708,0.830628,-0.632150,1.509071
5.880,602780,12.813767,7.196970,11.686098,0.929601,-0.754004,1.511732
5.900,602800,13.682862,7.594408,12.430696,0.919491,-0.606076,1.460117
5.920,602820,12.864046,6.895301,12.009315,0.954078,-0.523067,1.519714
5.940,602840,12.397177,6.208165,12.030864,1.020060,-0.521470,1.564943
5.960,602860,12.002133,5.655105,11.817780,1.063161,-0.513489,1.590484
5.980,602880,12.315774,5.681441,12.009315,1.132868,-0.582131,1.542594
6.000,602900,13.184869,5.930438,12.026075,1.109987,-0.551801,1.435640
6.020,602920,12.938266,5.793968,11.674128,0.976427,-0.412919,1.339327
6.040,602940,12.428301,5.485116,11.403583,0.930133,-0.381525,1.219602
6.060,602960,12.188881,5.295974,11.168951,0.875325,-0.331506,1.090831
6.080,602980,12.143391,5.039794,10.687716,0.842334,-0.291598,0.992390
6.100,603000,11.822568,4.668694,10.189722,0.817325,-0.279359,0.959931
6.120,603020,11.573571,4.484340,9.773131,0.824242,-0.326185,0.962060
6.140,603040,11.224017,4.503493,9.406818,0.835417,-0.380461,0.954610
6.160,603060,10.922348,4.707001,9.346964,0.837013,-0.400681,0.918958
6.180,603080,10.965444,4.944026,9.346964,0.918426,-0.428351,0.864683
6.200,603100,11.269507,5.133168,9.437943,0.930133,-0.379928,0.809343
6.220,603120,11.671733,5.200206,9.433155,0.927472,-0.324057,0.790719
6.240,603140,12.193669,5.262455,9.481039,0.912573,-0.282020,0.835417
6.260,603160,12.571953,5.197812,9.548077,0.882775,-0.233597,0.929069
6.280,603180,12.480973,5.140351,9.564836,0.854573,-0.220295,1.030170
6.300,603200,12.435484,5.322310,9.775525,0.834885,-0.213909,1.087106
6.320,603220,12.571953,5.671864,9.998186,0.824242,-0.172937,1.087638
6.340,603240,12.849681,5.923255,10.029311,0.856169,-0.154313,1.066354
6.360,603260,13.321339,5.956774,10.043676,0.853509,-0.063321,1.096152
6.380,603280,13.481750,5.896919,9.950302,0.820518,0.012771,1.173840
6.400,603300,13.673285,6.162675,9.976639,0.897674,-0.061193,1.236630
6.420,603320,13.591883,6.416461,10.062830,0.915766,-0.050551,1.264832
6.440,603340,13.026852,6.909666,10.201694,0.931729,0.026606,1.269621
6.460,603360,14.243106,7.333440,10.680533,1.021656,0.067578,1.230776
6.480,603380,13.615825,7.208941,9.911995,0.907784,0.299579,1.258978
6.500,603400,14.602236,7.769185,9.782708,0.912573,0.239983,1.198850
6.520,603420,13.539210,7.390901,8.966286,0.763582,0.363433,1.129675
6.540,603440,11.631032,6.897695,8.765172,0.786462,0.315011,1.076996
6.560,603460,11.793838,7.647080,9.186552,0.885967,0.268185,0.997179
6.580,603480,13.615825,8.769960,9.279925,0.942904,0.321396,0.881178
6.600,603500,13.448231,8.487445,8.846576,0.911509,0.499654,0.789655
6.620,603520,12.313379,7.685388,8.997410,0.914702,0.520406,0.721545
6.640,603540,12.373235,6.983886,9.471462,0.853509,0.502846,0.661948
6.660,603560,12.172121,6.344635,9.263166,0.710370,0.530516,0.670994
6.680,603580,11.449073,5.837064,9.236830,0.584260,0.557122,0.773692
6.700,603600,10.438720,5.489904,9.282320,0.516149,0.599691,0.904591
6.720,603620,9.842564,5.231331,9.452309,0.502314,0.660884,0.991858
6.740,603640,9.911995,5.013458,9.509769,0.506571,0.723141,1.036555
6.760,603660,10.213664,5.018247,9.564836,0.523067,0.735380,1.057840
6.780,603680,10.512939,5.159505,9.753978,0.549140,0.700260,1.042409
6.800,603700,10.826580,5.329493,9.888053,0.591177,0.617251,1.015271
6.820,603720,10.749966,5.425261,10.074800,0.620975,0.554461,0.993986
6.840,603740,10.589554,5.647922,10.187328,0.649177,0.505507,0.978555
6.860,603760,10.419566,5.932832,10.412383,0.671526,0.478901,0.947160
6.880,603780,10.441113,6.121974,10.582372,0.697067,0.436864,0.900334
6.900,603800,10.850522,6.617573,10.795456,0.743361,0.326717,0.844463
6.920,603820,12.258312,7.570466,11.338940,0.801362,0.146863,0.763049
6.940,603840,12.990938,7.752425,11.343728,0.755068,0.096312,0.756664
6.960,603860,13.022063,7.903260,11.305421,0.757196,-0.020752,0.802426
6.980,603880,12.959814,6.785168,10.941502,0.721545,0.013835,0.890756
7.000,603900,11.192893,5.712565,10.455479,0.653434,0.048422,1.040812
7.020,603920,11.482592,6.878541,11.820174,0.755600,-0.195817,1.026445
7.040,603940,13.752295,7.299921,12.497733,0.766242,-0.159634,0.841270
7.060,603960,11.848905,6.720524,11.717223,0.659820,0.067578,0.743361
7.080,603980,13.529634,7.666234,12.892776,0.582131,0.028734,0.572021
7.100,604000,12.145785,6.967127,12.804191,0.485287,0.129835,0.531048
7.120,604020,12.634202,7.230489,13.218388,0.518810,0.025009,0.544883
7.140,604040,12.650962,6.768408,13.266272,0.514553,0.059064,0.668333
7.160,604060,12.140997,6.555324,13.113043,0.487415,0.054808,0.808279
7.180,604080,12.095507,6.665458,13.359646,0.496993,0.007450,0.859894
7.200,604100,11.583148,6.684611,13.108254,0.478901,0.018092,0.879050
7.220,604120,11.389217,6.856994,13.086706,0.533709,0.028202,0.852444
7.240,604140,11.434708,6.718130,12.876017,0.608737,0.078221,0.810407
7.260,604160,11.324574,6.181829,12.586318,0.676315,0.086734,0.783270
7.280,604180,10.919954,5.535394,12.394782,0.726334,0.064918,0.775288
7.300,604200,10.512939,5.056554,12.277467,0.740169,0.000532,0.751875
7.320,604220,10.139444,4.754885,12.033257,0.782738,-0.135689,0.710902
7.340,604240,9.742006,4.721366,11.654974,0.805086,-0.232001,0.691746
7.360,604260,9.677363,4.917690,11.417948,0.816793,-0.262864,0.674187
7.380,604280,9.854534,5.087678,11.250354,0.844995,-0.264992,0.658755
7.400,604300,10.002975,5.248090,11.034876,0.849252,-0.251689,0.662480
7.420,604320,10.144233,5.509058,11.054029,0.882243,-0.258607,0.675251
7.440,604340,10.345345,5.736507,11.274296,0.882243,-0.229873,0.699196
7.460,604360,10.261548,5.834670,11.458650,0.937050,-0.268185,0.737508
7.480,604380,10.273520,5.975927,11.599907,0.850848,-0.141542,0.802426
7.500,604400,10.225636,6.143522,11.662156,0.901931,-0.127707,0.876922
7.520,604420,10.393229,6.540959,11.923124,0.899270,-0.034055,0.939179
7.540,604440,10.793061,7.084443,12.241553,0.899270,0.063854,0.978023
7.560,604460,11.202470,7.283162,12.363658,0.906720,0.143670,1.023785
7.580,604480,11.674128,7.400477,12.217611,0.949289,0.166551,1.088170
7.600,604500,12.059594,7.501034,12.100295,0.987069,0.110679,1.177033
7.620,604520,11.473015,7.951144,12.382812,1.030170,0.040441,1.272281
7.640,604540,12.741941,8.774749,13.168109,1.085510,-0.067046,1.297823
7.660,604560,11.575965,8.427590,12.509704,0.991858,0.092588,1.367529
7.680,604580,12.330139,9.026140,12.756307,0.974830,0.045230,1.326557
7.700,604600,11.319786,8.300697,11.827356,0.752407,0.221891,1.269621
7.720,604620,9.950302,7.663840,11.123461,0.767306,0.144203,1.234501
7.740,604640,9.442732,7.611167,10.898406,0.827967,0.092055,1.196189
7.760,604660,9.950302,8.353370,10.896012,0.863087,0.167083,1.133932
7.780,604680,10.548853,8.786720,10.752359,0.888628,0.316607,1.056776
7.800,604700,10.067618,8.288726,10.752359,0.888628,0.453892,1.030170
7.820,604720,10.160992,7.975086,11.054029,0.935454,0.450167,0.986537
7.840,604740,10.503363,7.694964,11.099519,0.900334,0.456553,0.930133
7.860,604760,10.362105,7.182605,11.075577,0.799765,0.517213,0.919491
7.880,604780,9.909601,6.639122,10.910378,0.754004,0.504443,0.947160
7.900,604800,9.526528,6.332664,11.001357,0.713563,0.472516,0.986537
7.920,604820,9.402030,6.126762,11.152191,0.670994,0.476773,1.024317
7.940,604840,9.493010,5.983110,10.927136,0.651838,0.415580,1.074335
7.960,604860,9.612720,6.007052,10.802638,0.616186,0.406002,1.127015
7.980,604880,9.763555,6.066907,10.958261,0.636939,0.314479,1.165859
8.000,604900,9.828198,6.100426,10.984597,0.610865,0.291598,1.204703
8.020,604920,9.809045,6.179435,10.963050,0.608205,0.254882,1.241419
8.040,604940,9.785102,6.325481,11.121067,0.642792,0.220295,1.263767
8.060,604960,9.801862,6.471527,11.262324,0.683765,0.152184,1.257382
8.080,604980,10.249578,6.715736,11.394006,0.738572,0.047890,1.196189
8.100,605000,10.817003,6.880936,11.496957,0.792316,-0.053743,1.122225
8.120,605020,11.484985,7.189788,11.575965,0.843931,-0.185707,1.056776
8.140,605040,11.913548,7.297527,11.575965,0.826903,-0.257542,1.039748
8.160,605060,11.882423,7.292738,11.504139,0.790187,-0.299579,1.061032
8.180,605080,11.508927,6.746861,11.303026,0.739636,-0.284680,1.115308
8.200,605100,10.417171,6.165070,11.154586,0.699728,-0.271910,1.202042
8.220,605120,10.134656,6.457162,11.693281,0.705049,-0.332038,1.192996
8.240,605140,11.650186,7.242460,12.528857,0.766774,-0.441121,1.078592
8.260,605160,11.664551,7.338228,12.464214,0.659820,-0.307029,1.012078
8.280,605180,12.200851,8.075643,13.172897,0.712499,-0.358644,0.900867
8.300,605200,12.064383,8.034941,13.749901,0.610333,-0.164423,0.832756
8.320,605220,11.121067,7.615956,13.773843,0.567764,-0.062789,0.830096
8.340,605240,11.353305,7.268796,13.855246,0.617783,-0.067046,0.889692
8.360,605260,11.168951,6.766014,13.532028,0.652370,-0.082477,0.983344
8.380,605280,11.358093,6.660669,13.757083,0.734847,-0.222955,0.957803
8.400,605300,11.183316,6.588843,13.788208,0.700792,-0.222955,0.840738
8.420,605320,10.251971,6.428432,13.374011,0.654498,-0.167083,0.716756
8.440,605340,9.923966,6.612785,13.196839,0.662480,-0.120790,0.577874
8.460,605360,10.115502,6.643910,12.962208,0.701324,-0.078753,0.460809
8.480,605380,10.230424,6.268020,12.430696,0.669930,-0.014367,0.434736
8.500,605400,10.184934,5.868188,12.011710,0.678444,-0.059597,0.484755
8.520,605420,9.818622,5.585672,11.657368,0.719416,-0.165487,0.564039
8.540,605440,9.291897,5.533000,11.408371,0.768903,-0.262332,0.629489
8.560,605460,8.983045,5.693412,11.271901,0.815729,-0.296919,0.672058
8.580,605480,9.026140,5.880159,11.216835,0.825307,-0.249029,0.687489
8.600,605500,9.244013,5.983110,11.200075,0.851912,-0.208588,0.705049
8.620,605520,9.569624,6.054936,11.372458,0.896610,-0.200074,0.735380
8.640,605540,9.964667,6.155493,11.592725,0.911509,-0.194753,0.794976
8.660,605560,10.134656,6.141128,11.726800,0.877454,-0.149524,0.882775
8.680,605580,9.974244,6.181829,11.767501,0.833288,-0.087266,0.974830
8.700,605600,9.976639,6.447585,12.057199,0.875325,-0.083010,1.035491
8.720,605620,10.132261,6.849811,12.404359,0.876389,-0.006917,1.074335
8.740,605640,10.189722,7.192182,12.598289,0.852976,0.143138,1.093491
8.760,605660,10.350134,7.175423,12.686874,0.882775,0.236258,1.105198
8.780,605680,11.137826,7.378930,12.495338,0.917362,0.242643,1.154152
8.800,605700,11.190498,7.690176,12.406754,0.962592,0.230937,1.235565
8.820,605720,10.917560,8.762778,12.974179,1.098812,0.070771,1.223327
8.840,605740,11.293449,8.980651,13.381193,1.068482,0.212845,1.152024
8.860,605760,10.287885,8.623915,12.758701,0.971105,0.421433,1.088170
8.880,605780,10.560823,8.418014,12.588713,0.897674,0.515085,0.961527
8.900,605800,9.770737,7.984663,11.717223,0.720480,0.636407,0.863619
8.920,605820,9.227253,7.527370,11.386824,0.674187,0.644920,0.800297
8.940,605840,8.999804,7.496245,11.353305,0.662480,0.657691,0.831160
8.960,605860,9.662998,8.178593,11.482592,0.680572,0.681636,0.884903
8.980,605880,9.622296,8.300697,11.362882,0.620975,0.831692,0.885435
9.000,605900,9.011775,8.051701,11.566388,0.617251,0.874261,0.897142
9.020,605920,9.224859,7.953538,12.090718,0.709306,0.722609,0.865747
9.040,605940,9.488221,7.702147,12.275072,0.684297,0.660884,0.844995
9.060,605960,9.301474,7.218518,12.052411,0.603416,0.665141,0.873729
9.080,605980,8.793902,6.722919,11.884817,0.614058,0.578938,0.959931
9.100,606000,8.379706,6.562507,11.942278,0.646517,0.457085,1.045601
9.120,606020,8.202535,6.473921,11.973403,0.637471,0.444846,1.085510
9.140,606040,8.386889,6.313510,11.765107,0.617783,0.440589,1.105730
9.160,606060,8.556877,6.303933,11.647791,0.664077,0.355983,1.106262
9.180,606080,8.662222,6.390124,11.839328,0.670462,0.285212,1.084978
9.200,606100,8.458714,6.483498,11.971008,0.675251,0.225616,1.056244
9.220,606120,8.403648,6.636727,12.035652,0.706645,0.145799,1.054647
9.240,606140,8.370130,6.909666,12.083536,0.703985,0.123982,1.069546
9.260,606160,8.343793,7.067683,12.140997,0.731123,0.070771,1.082317
9.280,606180,8.331821,7.228095,12.241553,0.769435,-0.012771,1.090299
9.300,606200,8.540117,7.800309,12.636597,0.820518,-0.130368,1.061032
9.320,606220,9.153033,8.329428,13.204022,0.840738,-0.208588,0.979619
9.340,606240,9.397242,8.420407,13.266272,0.806151,-0.251689,0.952482
9.360,606260,10.189722,8.231265,13.168109,0.772627,-0.285744,1.004097
9.380,606280,9.761160,7.661446,12.840104,0.718352,-0.271910,1.198318
9.400,606300,9.516952,8.427590,13.390770,0.842866,-0.473048,1.306869
9.420,606320,10.400413,8.597578,14.099454,0.860426,-0.498057,1.236098
9.440,606340,9.545682,8.508993,14.109031,0.807215,-0.457085,1.199914
9.460,606360,10.261548,8.961497,14.911088,0.912041,-0.597562,1.070611
9.480,606380,9.516952,8.066066,14.741100,0.715691,-0.329378,1.036555
9.500,606400,9.399636,7.558495,14.305355,0.753471,-0.380461,1.103069
9.520,606420,10.038888,7.163452,14.137761,0.835417,-0.423562,1.226519
9.540,606440,9.598354,6.687006,13.895947,0.861490,-0.402809,1.309529
9.560,606460,9.114726,6.581660,14.216769,0.863619,-0.435800,1.266428
9.580,606480,8.834604,6.787562,14.343662,0.848720,-0.448571,1.159473
9.600,606500,9.040505,7.184999,14.290990,0.815196,-0.403341,1.038684
9.620,606520,9.200917,7.448361,14.154520,0.788059,-0.328313,0.976959
9.640,606540,9.481039,7.343017,13.706804,0.818921,-0.338424,0.970573
9.660,606560,9.674969,6.883330,13.354857,0.796573,-0.332570,1.011546
9.680,606580,9.572019,6.184223,12.983756,0.800297,-0.393763,1.073803
9.700,606600,9.212888,5.710171,12.698846,0.784334,-0.448039,1.135528
9.720,606620,8.875306,5.370194,12.385205,0.792848,-0.492204,1.169051
9.740,606640,8.669404,5.204995,12.083536,0.836481,-0.547012,1.190336
9.760,606660,8.834604,5.231331,11.896789,0.866811,-0.562975,1.203639
9.780,606680,9.112331,5.307945,11.846510,0.912573,-0.572553,1.191932
9.800,606700,9.437943,5.473145,11.992557,0.954610,-0.561911,1.169051
9.820,606720,9.904813,5.623980,11.997345,0.974830,-0.534241,1.145638
9.840,606740,10.220847,5.786786,11.992557,0.980151,-0.507635,1.125418
9.860,606760,10.445902,5.777209,12.129025,0.994518,-0.480498,1.131804
9.880,606780,10.433931,5.738902,12.179304,1.008353,-0.456021,1.187675
9.900,606800,10.716447,6.150704,12.382812,1.024849,-0.432075,1.248336
9.920,606820,11.231200,6.670246,12.526464,1.038152,-0.349598,1.298355
9.940,606840,11.827356,6.801927,12.461820,1.074335,-0.292662,1.349438
9.960,606860,11.944673,6.725313,12.303802,1.099345,-0.277763,1.409566
9.980,606880,12.253524,6.641516,12.287044,1.133400,-0.323524,1.436704
10.000,606900,11.736377,6.440403,12.042834,1.077528,-0.312350,1.479273
10.020,606920,11.070788,6.766014,12.133814,1.114244,-0.377800,1.501090
10.040,606940,12.129025,7.594408,12.504915,1.167455,-0.420901,1.455860
10.060,606960,12.028469,7.417237,11.808203,1.070078,-0.272442,1.484062
10.080,606980,12.955026,8.219295,11.959038,1.105198,-0.362369,1.477144
10.100,607000,13.347674,8.262390,11.518504,0.939179,-0.246900,1.444154
10.120,607020,11.669339,7.656657,10.469844,0.830096,-0.198478,1.471291
10.140,607040,10.398018,7.223307,10.146626,0.860426,-0.202203,1.517053
10.160,607060,9.526528,7.366959,9.844957,0.902463,-0.117065,1.548448
10.180,607080,10.311827,8.319851,9.900024,1.019528,-0.062257,1.471291
10.200,607100,11.152191,8.746018,9.813833,1.138189,0.044165,1.321768
10.220,607120,10.986992,8.267179,9.643845,1.165327,0.188368,1.235033
10.240,607140,11.073183,7.757214,9.892841,1.222795,0.186239,1.173840
10.260,607160,11.200075,7.347805,10.091560,1.162666,0.234662,1.141381
10.280,607180,11.152191,7.144298,10.062830,1.053051,0.289469,1.174905
10.300,607200,10.680533,6.902483,10.101137,0.971638,0.351194,1.252593
10.320,607220,10.180145,6.600814,10.211270,0.942371,0.383653,1.306336
10.340,607240,10.256760,6.296751,10.235212,0.937582,0.376736,1.340392
10.360,607260,10.412383,5.906496,10.103531,0.893417,0.392699,1.364869
10.380,607280,10.486604,5.671864,10.031705,0.874793,0.357048,1.386153
10.400,607300,10.651803,5.741296,10.151415,0.831692,0.340020,1.389878
10.420,607320,10.850522,5.865794,10.137050,0.801362,0.342681,1.393603
10.440,607340,11.075577,5.920861,10.113108,0.799765,0.339488,1.405309
10.460,607360,11.209652,5.872977,10.065224,0.802958,0.330974,1.427126
10.480,607380,11.434708,5.942409,10.084377,0.829563,0.274038,1.442025
10.500,607400,11.932701,6.110003,10.180145,0.863619,0.195285,1.430851
10.520,607420,12.581530,6.131551,10.199299,0.884903,0.096844,1.433511
10.540,607440,13.211205,6.153099,10.220847,0.899802,-0.034055,1.472888
10.560,607460,13.445837,5.896919,10.144233,0.876389,-0.152716,1.534613
10.580,607480,13.443442,5.882554,10.192117,0.829031,-0.281488,1.569200
10.600,607500,13.419500,5.705383,10.228029,0.772627,-0.393231,1.559622
10.620,607520,12.708423,5.384560,10.077195,0.692811,-0.449635,1.556429
10.640,607540,12.150574,5.398925,10.230424,0.702921,-0.551269,1.514392
10.660,607560,12.387600,5.877765,10.627861,0.717288,-0.611397,1.435108
10.680,607580,13.524845,6.818686,10.934319,0.775288,-0.690150,1.341988
10.700,607600,14.523228,7.050924,10.939108,0.734847,-0.556590,1.270153
10.720,607620,14.250289,7.086837,10.955867,0.780609,-0.527856,1.304208
10.740,607640,15.339650,7.371747,11.508927,0.910445,-0.641728,1.270685
10.760,607660,14.132973,6.433220,11.168951,0.722609,-0.349598,1.289841
10.780,607680,13.649343,5.724536,11.243171,0.870004,-0.469323,1.328153
10.800,607700,13.311762,4.788404,11.525687,0.853509,-0.370882,1.398924
10.820,607720,12.703634,4.273650,11.633426,0.792316,-0.329910,1.462777
10.840,607740,13.019669,4.675876,12.026075,0.750279,-0.318735,1.432447
10.860,607760,12.753913,5.128380,11.999739,0.604480,-0.159102,1.345713
10.880,607780,12.617443,5.456386,11.817780,0.589581,-0.070771,1.190336
10.900,607800,12.940660,5.430049,11.602302,0.602351,0.039376,1.043473
10.920,607820,12.715605,4.908113,11.056423,0.608737,0.095780,0.996647
10.940,607840,12.320562,4.498705,10.917560,0.690150,-0.018624,1.009418
10.960,607860,12.119449,4.438850,11.073183,0.766774,-0.083542,1.013674
10.980,607880,11.896789,4.448427,10.828975,0.821582,-0.176129,0.976959
11.000,607900,12.093113,4.529830,10.505757,0.862022,-0.254882,0.915234
11.020,607920,12.097901,4.410120,10.371682,0.871068,-0.247964,0.856169
11.040,607940,12.107478,4.450821,10.103531,0.906188,-0.334167,0.810407
11.060,607960,12.088325,4.458004,10.022128,0.922683,-0.386314,0.797637
11.080,607980,12.126632,4.434062,10.014946,0.876389,-0.384185,0.809343
11.100,608000,12.342110,4.417302,10.196905,0.852444,-0.344809,0.843398
11.120,608020,12.469003,4.347870,10.199299,0.846059,-0.347470,0.901399
11.140,608040,12.593501,4.309563,9.923966,0.862555,-0.362901,0.980684
11.160,608060,12.660539,4.316746,10.311827,0.863087,-0.339488,1.050390
11.180,608080,13.163321,4.666299,10.546458,0.842866,-0.309157,1.089767
11.200,608100,13.831304,4.635174,10.654198,0.899802,-0.315543,1.117436
11.220,608120,13.156138,4.304775,10.419566,0.794976,-0.166019,1.166923
11.240,608140,13.658920,4.644751,10.335769,0.813600,-0.183047,1.186611
11.260,608160,13.742718,4.970363,10.146626,0.835417,-0.154845,1.173840
11.280,608180,14.571112,5.959168,10.520123,0.855637,-0.089395,1.133932
11.300,608200,16.101006,6.512228,10.285490,0.921619,-0.086734,1.119565
11.320,608220,15.406688,6.895301,9.696517,0.976959,-0.169744,1.135528
11.340,608240,16.833632,7.146692,9.770737,1.001436,-0.247432,1.120629
11.360,608260,14.132973,6.126762,8.410830,0.714095,0.015963,1.224923
11.380,608280,12.591106,5.837064,7.855376,0.783270,-0.145267,1.239290
11.400,608300,12.370840,6.981492,7.958326,0.831692,-0.150056,1.146170
11.420,608320,14.322115,8.465898,8.537724,0.944500,-0.078753,0.938647
11.440,608340,14.159308,7.726089,8.449138,0.992922,0.054808,0.858298
11.460,608360,13.120225,6.694188,8.159439,0.897674,0.167615,0.922151
11.480,608380,13.795390,6.373365,8.657434,0.928536,0.135157,1.024849
11.500,608400,13.074736,5.772420,8.882488,0.790187,0.276699,1.165859
11.520,608420,12.105083,5.166687,9.083601,0.779545,0.285744,1.255786
11.540,608440,11.614272,4.869806,9.437943,0.758793,0.322460,1.257382
11.560,608460,11.386824,4.611232,9.509769,0.768903,0.317671,1.173840
11.580,608480,11.757924,4.455609,9.545682,0.788059,0.260735,1.076464
11.600,608500,12.021287,4.290410,9.342175,0.771031,0.162294,1.043473
11.620,608520,12.085930,4.328717,9.097966,0.748150,0.069707,1.067950
11.640,608540,12.100295,4.620809,8.892065,0.764646,-0.018092,1.107326
11.660,608560,11.769896,4.987122,8.817844,0.789655,-0.063854,1.103601
11.680,608580,11.599907,5.181053,8.710106,0.850848,-0.092588,1.059968
11.700,608600,11.784261,5.432444,8.688558,0.895545,-0.094184,1.031766
11.720,608620,12.258312,5.645528,8.719683,0.886500,-0.005853,1.030170
11.740,608640,12.318168,5.820304,8.379706,0.835417,0.037780,1.054647
11.760,608660,13.230358,6.538565,8.264784,0.876389,-0.064386,1.001436
11.780,608680,14.319720,6.677429,8.262390,0.902995,-0.094184,0.956738
11.800,608700,14.482526,6.311116,8.109161,0.965252,-0.148459,1.061032
11.820,608720,14.089877,5.609614,8.054094,0.945032,-0.123450,1.256850
11.840,608740,12.514492,4.843470,8.046912,0.885967,-0.037780,1.434043
11.860,608760,12.423512,4.774038,8.520964,0.942904,-0.148992,1.450007
11.880,608780,15.332468,5.980716,8.923190,1.005693,-0.303304,1.323896
11.900,608800,15.428236,5.722142,8.975863,0.926940,-0.199010,1.264300
11.920,608820,15.430630,6.095637,9.210494,1.029638,-0.360772,1.213749
11.940,608840,16.931795,6.387730,10.120291,1.045069,-0.398552,1.175969
11.960,608860,15.452178,5.346252,9.756371,0.881711,-0.228276,1.218006
11.980,608880,15.765819,5.106832,9.895236,0.895013,-0.330442,1.279199
12.000,608900,14.135366,4.297592,9.682152,0.789123,-0.236258,1.362740
12.020,608920,12.899959,3.873818,9.521740,0.803490,-0.251157,1.367529
12.040,608940,14.446613,4.920084,10.244789,0.862022,-0.382057,1.258446
12.060,608960,14.726735,5.497087,10.256760,0.724737,-0.244772,1.111051
12.080,608980,14.192827,5.269638,9.900024,0.721545,-0.183047,1.002500
12.100,609000,14.537593,5.051765,9.737218,0.757728,-0.197414,0.960463
12.120,609020,13.500903,4.261679,9.349358,0.679508,-0.105358,1.040280
12.140,609040,12.265495,3.756502,9.076419,0.634278,-0.052679,1.129675
12.160,609060,12.143391,3.873818,9.088389,0.662480,-0.102166,1.123290
12.180,609080,12.471396,4.141969,9.212888,0.684297,-0.076624,1.039216
12.200,609100,12.500127,4.122815,9.088389,0.692278,-0.009578,0.949821
12.220,609120,12.667721,4.139575,8.889671,0.727930,0.019688,0.888628
12.240,609140,12.770672,4.012682,8.805874,0.790719,0.039908,0.858830
12.260,609160,12.820951,3.780444,8.767567,0.834885,0.060661,0.859894
12.280,609180,12.962208,3.562572,8.808268,0.913637,0.002128,0.871600
12.300,609200,12.981361,3.248932,8.920795,0.961527,-0.049486,0.897142
12.320,609220,13.036428,3.198653,9.002198,0.994518,-0.094716,0.914169
12.340,609240,12.993333,3.330335,9.402030,0.973766,-0.062257,0.920555
12.360,609260,13.249513,3.667917,9.840169,0.930665,0.009578,0.891289
12.380,609280,14.384364,4.065354,10.141838,0.862022,0.083010,0.850848
12.400,609300,14.298173,3.813963,9.696517,0.735912,0.184643,0.887032
12.420,609320,14.061147,4.019865,9.215282,0.709838,0.154313,0.920555
12.440,609340,14.686033,4.879383,9.033323,0.751875,0.050551,0.922683
12.460,609360,15.327680,5.983110,9.200917,0.812004,0.008514,0.901399
12.480,609380,16.788143,6.746861,9.313444,0.896078,-0.016495,0.940243
12.500,609400,15.512033,6.576872,9.074024,0.796040,0.209120,1.021656
12.520,609420,15.727511,6.897695,9.014170,0.843931,0.158037,1.022720
12.540,609440,14.130578,6.988675,8.568848,0.666737,0.338956,0.946096
12.560,609460,12.950237,6.890512,8.523358,0.618315,0.475709,0.808279
12.580,609480,11.501745,6.366182,8.233660,0.672590,0.589049,0.718352
12.600,609500,12.033257,6.933608,8.123527,0.803490,0.617783,0.672058
12.620,609520,13.414712,7.340622,8.413225,0.921619,0.668866,0.647581
12.640,609540,12.641385,6.672640,8.324639,0.895545,0.831160,0.665673
12.660,609560,12.358870,6.203377,8.688558,0.907252,0.806151,0.686957
12.680,609580,12.375628,5.731719,9.145850,0.846591,0.804022,0.677379
12.700,609600,11.669339,5.169082,9.169792,0.713563,0.826903,0.680040
12.720,609620,11.008539,4.982334,9.212888,0.617251,0.806151,0.700260
12.740,609640,10.843340,5.317522,9.311050,0.593838,0.774224,0.707710
12.760,609660,11.149797,5.592855,9.476251,0.591177,0.824775,0.703453
12.780,609680,11.456255,5.635951,9.636662,0.613526,0.853509,0.733783
12.800,609700,11.702858,5.671864,9.789890,0.638003,0.815729,0.779545
12.820,609720,12.200851,5.932832,10.046070,0.648113,0.755068,0.789655
12.840,609740,12.325351,6.038177,10.251971,0.653434,0.704517,0.793912
12.860,609760,12.294226,6.081272,10.460267,0.673654,0.588517,0.795508
12.880,609780,12.251130,6.119579,10.599131,0.693875,0.457617,0.807215
12.900,609800,11.980585,6.093243,10.579977,0.690682,0.371415,0.845527
12.920,609820,11.882423,6.203377,10.647015,0.710902,0.274570,0.880646
12.940,609840,12.100295,6.576872,10.785878,0.731655,0.206460,0.875857
12.960,609860,12.447454,6.634333,10.867282,0.742297,0.183579,0.847123
12.980,609880,12.368446,6.464345,10.627861,0.733251,0.172404,0.830096
13.000,609900,12.945449,6.287174,10.635044,0.758793,0.101101,0.820518
13.020,609920,12.703634,5.686229,10.266336,0.692811,0.104294,0.891821
13.040,609940,11.908759,5.418078,10.113108,0.660884,0.013303,0.974830
13.060,609960,11.619061,5.671864,10.539276,0.683233,-0.108551,0.973234
13.080,609980,11.719617,6.394913,11.077971,0.715691,-0.175065,0.888628
13.100,610000,13.637373,7.548918,11.492168,0.775820,-0.293726,0.708242
13.120,610020,12.176909,6.414066,10.907983,0.596498,0.049486,0.689618
13.140,610040,13.723564,7.771579,11.695675,0.821050,-0.290533,0.696003
13.160,610060,14.812926,8.018182,12.267890,0.846059,-0.309690,0.677911
13.180,610080,13.098678,6.842628,11.669339,0.518810,0.044697,0.785930
13.200,610100,11.817780,5.837064,11.573571,0.722609,-0.210184,0.953546
13.220,610120,11.496957,5.884948,12.217611,0.812536,-0.334167,1.070078
13.240,610140,12.490550,6.483498,12.729970,0.743893,-0.270313,1.041344
13.260,610160,12.315774,6.512228,12.258312,0.584792,-0.087799,0.968977
13.280,610180,11.738770,6.641516,11.915942,0.528920,-0.020220,0.857765
13.300,610200,11.700463,6.766014,11.944673,0.576278,-0.045762,0.735912
13.320,610220,12.042834,6.739678,11.882423,0.617251,-0.001064,0.668333
13.340,610240,12.265495,6.177041,11.319786,0.667269,-0.002661,0.691214
13.360,610260,12.152967,5.688623,10.867282,0.699728,-0.052147,0.809875
13.380,610280,11.473015,5.286397,10.651803,0.707710,-0.083010,0.928536
13.400,610300,10.754754,5.243302,10.350134,0.764646,-0.156441,0.968445
13.420,610320,10.579977,5.252879,10.333375,0.812004,-0.139413,0.955142
13.440,610340,10.802638,5.231331,10.412383,0.913637,-0.137817,0.930665
13.460,610360,10.888829,5.099649,10.565612,0.948225,-0.109083,0.973234
13.480,610380,11.089942,5.236119,10.795456,1.006757,-0.127175,1.026977
13.500,610400,11.638214,5.430049,11.020511,1.030170,-0.143670,1.080189
13.520,610420,11.858481,5.523423,11.135432,1.021656,-0.167083,1.161070
13.540,610440,11.489774,5.655105,11.365275,1.027509,-0.214973,1.246740
13.560,610460,11.516110,6.066907,11.815386,1.070611,-0.271910,1.294630
13.580,610480,11.595119,6.406884,12.121843,1.078592,-0.237854,1.334006
13.600,610500,11.911154,6.536170,12.162544,1.073271,-0.176129,1.363272
13.620,610520,12.303802,6.691794,11.870452,1.071675,-0.131964,1.401052
13.640,610540,12.818556,6.744466,11.597513,1.099345,-0.125579,1.443621
13.660,610560,12.770672,7.304709,11.824963,1.141914,-0.131432,1.489383
13.680,610580,14.889541,8.453926,12.310986,1.278667,-0.223487,1.413823
13.700,610600,13.730747,7.584831,11.350910,1.034427,0.168680,1.470759
13.720,610620,13.785813,7.623138,10.934319,1.184483,-0.017560,1.497897
13.740,610640,12.708423,7.580042,10.733206,1.075932,0.028734,1.484594
13.760,610660,11.870452,7.541735,10.216059,1.084445,-0.019688,1.384025
13.780,610680,11.133038,7.089231,9.746795,1.097748,0.007450,1.324428
13.800,610700,11.207258,7.414843,9.275137,1.141914,0.001596,1.268556
13.820,610720,12.509704,7.809886,9.327810,1.166391,0.067046,1.173840
13.840,610740,11.892000,7.043741,9.071630,1.090299,0.192093,1.170648
13.860,610760,11.824963,6.627151,9.220071,1.075932,0.119193,1.186611
13.880,610780,12.057199,6.373365,9.531317,0.960463,0.152184,1.206299
13.900,610800,11.712435,5.892130,9.378088,0.833288,0.226680,1.273878
13.920,610820,11.286267,5.580884,9.253590,0.769435,0.246900,1.361144
13.940,610840,11.044453,5.580884,9.289502,0.757728,0.267653,1.397328
13.960,610860,11.123461,5.420473,9.411607,0.789655,0.294790,1.395199
13.980,610880,11.365275,5.286397,9.346964,0.813600,0.290001,1.382961
14.000,610900,11.645397,5.372589,9.313444,0.829031,0.244772,1.365933
14.020,610920,11.812991,5.401319,9.337387,0.845527,0.199542,1.340392
14.040,610940,11.803414,5.394136,9.291897,0.852976,0.160698,1.330281
14.060,610960,11.994950,5.537788,9.277532,0.872133,0.112276,1.337199
14.080,610980,12.318168,5.595249,9.337387,0.877986,0.080349,1.354759
14.100,611000,12.342110,5.477933,9.411607,0.875857,0.045230,1.399988
14.120,611020,12.504915,5.437232,9.536105,0.871600,-0.019156,1.435640
14.140,611040,12.777855,5.521029,9.612720,0.861490,-0.089927,1.443621
14.160,611060,13.453019,5.887342,9.787497,0.847655,-0.165487,1.398924
14.180,611080,13.661315,5.803545,9.588778,0.806151,-0.202735,1.356887
14.200,611100,13.462596,5.822699,9.409213,0.819453,-0.275634,1.328685
14.220,611120,13.328521,5.616797,9.469068,0.838609,-0.315011,1.330281
14.240,611140,12.088325,5.674258,9.694122,0.824242,-0.284148,1.323896
14.260,611160,14.200010,6.909666,10.596737,0.950885,-0.444314,1.153620
14.280,611180,14.494497,6.607996,10.386047,0.822646,-0.233065,1.081253
14.300,611200,15.619772,7.299921,10.498574,0.899802,-0.375139,1.033895
14.320,611220,15.749059,7.144298,11.257536,0.789655,-0.310754,1.023252
14.340,611240,14.080300,6.150704,11.154586,0.707178,-0.246368,1.017931
14.360,611260,13.275848,5.056554,11.255142,0.584792,-0.108019,1.081253
14.380,611280,12.725182,4.465186,10.934319,0.571489,-0.033523,1.192464
14.400,611300,14.319720,5.085284,11.295844,0.567232,-0.117597,1.277070
14.420,611320,14.324509,5.248090,11.121067,0.466663,-0.088331,1.315914
14.440,611340,13.321339,5.104438,10.881647,0.515617,-0.127707,1.279731
14.460,611360,13.280637,5.078102,10.769119,0.555526,-0.111212,1.175437
14.480,611380,12.899959,4.778827,10.448297,0.603416,-0.026074,1.096152
14.500,611400,12.442666,4.302381,10.278308,0.644388,0.054275,1.065822
14.520,611420,12.322956,4.067749,10.295067,0.718884,0.031395,1.049326
14.540,611440,12.308591,3.902549,10.311827,0.746554,0.036184,1.043473
14.560,611460,12.344504,3.861847,10.127473,0.779545,0.012239,1.054115
14.580,611480,12.375628,3.840300,10.024523,0.826903,-0.038312,1.073803
14.600,611500,12.322956,3.869030,10.022128,0.848720,-0.050551,1.080189
14.620,611520,12.385205,3.904943,10.070012,0.898206,-0.088331,1.062629
14.640,611540,12.548011,3.804387,10.156203,0.921087,-0.089395,1.060500
14.660,611560,12.782643,3.842694,10.240001,0.940775,-0.102166,1.080189
14.680,611580,13.000515,3.854665,10.244789,0.947693,-0.135689,1.102005
14.700,611600,12.864046,3.773262,10.170568,0.959399,-0.179854,1.112115
14.720,611620,12.785037,3.931279,10.259154,0.984408,-0.216038,1.113180
14.740,611640,13.304579,4.434062,10.644621,1.007821,-0.205928,1.109455
14.760,611660,13.699622,4.745308,10.910378,0.965784,-0.106955,1.100409
14.780,611680,13.769054,4.666299,10.769119,0.920555,-0.027670,1.106794
14.800,611700,14.346057,4.745308,10.505757,0.929069,-0.029798,1.157345
14.820,611720,14.779408,4.915296,10.386047,0.960463,-0.073964,1.244079
14.840,611740,14.932636,5.607220,10.520123,1.026445,-0.121322,1.295162
14.860,611760,16.402676,6.200983,10.596737,1.122225,-0.242111,1.326025
14.880,611780,15.160085,6.062119,10.055647,1.025913,-0.093652,1.380300
14.900,611800,15.866375,6.359000,10.024523,1.100409,-0.229341,1.352630
14.920,611820,14.767436,6.236896,9.572019,0.921619,-0.129303,1.301015
14.940,611840,13.565547,5.947197,8.992621,0.900334,-0.147927,1.211620
14.960,611860,12.351686,5.535394,8.652645,0.885967,-0.060661,1.153088
14.980,611880,12.986150,5.980716,8.389283,0.969509,-0.062789,1.120629
15.000,611900,14.331692,6.488286,8.379706,1.022720,-0.002128,1.106262
15.020,611920,13.723564,6.016629,8.157045,1.024849,0.096844,1.125418
15.040,611940,13.419500,5.726931,8.300697,1.076464,0.111212,1.125950
15.060,611960,12.983756,5.216966,8.470686,1.012078,0.234662,1.118501
15.080,611980,12.581530,4.769250,8.485051,0.966849,0.295855,1.127547
15.100,612000,12.212823,4.462792,8.590396,0.935454,0.345873,1.154152
15.120,612020,11.975797,4.156334,8.604761,0.933858,0.353855,1.168519
15.140,612040,12.114660,3.926491,8.746018,0.934922,0.349598,1.179694
15.160,612060,12.231977,3.869030,8.786720,0.902995,0.328846,1.192996
15.180,612080,12.375628,3.974375,8.803479,0.868940,0.289469,1.203107
15.200,612100,12.727576,4.158728,8.904037,0.855637,0.242643,1.186079
15.220,612120,12.765883,4.173094,8.906430,0.834885,0.207524,1.158941
15.240,612140,12.646173,4.177882,8.971074,0.831160,0.160166,1.116372
15.260,612160,12.610260,4.206613,9.059659,0.823178,0.134624,1.049326
15.280,612180,12.480973,4.185065,9.212888,0.805618,0.129835,0.959399
15.300,612200,12.299014,4.141969,9.275137,0.784334,0.129835,0.856701
15.320,612220,13.019669,4.666299,9.433155,0.798701,0.088331,0.746554
15.340,612240,14.683639,5.240908,9.378088,0.802426,0.056404,0.703453
15.360,612260,15.054740,5.164293,9.059659,0.776884,0.068643,0.813068
15.380,612280,15.382746,5.293580,9.028535,0.806151,-0.063321,0.980684
15.400,612300,14.595054,5.236119,9.210494,0.756664,-0.096312,1.127015
15.420,612320,13.663709,5.295974,9.442732,0.711967,-0.141542,1.155748
15.440,612340,15.325285,5.896919,9.909601,0.746022,-0.245836,1.090299
15.460,612360,15.169662,5.717354,9.622296,0.648645,-0.180386,1.077528
15.480,612380,16.654066,6.282385,9.734824,0.717820,-0.381525,1.091895
15.500,612400,14.954184,5.451597,9.957485,0.577874,-0.236258,1.162134
15.520,612420,13.543999,4.637568,10.230424,0.557122,-0.199010,1.227052
15.540,612440,13.486538,4.168305,10.568007,0.521470,-0.101633,1.288777
15.560,612460,14.731524,4.508282,10.704475,0.461874,-0.051615,1.335603
15.580,612480,15.552734,4.836287,10.831368,0.367690,-0.035119,1.373915
15.600,612500,14.686033,4.857835,10.886436,0.330442,0.002128,1.371786
15.620,612520,14.611813,4.953603,11.271901,0.418240,-0.036716,1.280795
15.640,612540,14.053964,4.570531,11.245565,0.402277,0.132496,1.154152
15.660,612560,13.357251,4.146757,10.946290,0.433672,0.212313,1.042409
15.680,612580,13.235147,3.943250,10.759542,0.496461,0.210717,0.943968
15.700,612600,12.897565,3.725378,10.431537,0.547012,0.216570,0.857233
15.720,612620,12.504915,3.466804,10.079589,0.660884,0.129835,0.804022
15.740,612640,12.109872,3.330335,9.981427,0.782738,0.047890,0.777416
15.760,612660,11.858481,3.177106,9.938332,0.877454,-0.032991,0.767306
15.780,612680,11.932701,3.129222,10.060435,0.982812,-0.078753,0.773160
15.800,612700,12.430696,3.284845,10.014946,1.012610,-0.111744,0.813068
15.820,612720,12.751518,3.383007,9.957485,1.018463,-0.119193,0.854041
15.840,612740,12.974179,3.469198,10.103531,1.064225,-0.166551,0.891289
15.860,612760,12.861651,3.567361,10.192117,1.064225,-0.199010,0.925876
15.880,612780,12.904747,3.799598,10.342952,1.075400,-0.217102,0.929069
15.900,612800,13.206416,4.067749,10.599131,1.050390,-0.217634,0.943968
15.920,612820,14.049175,4.697424,10.749966,1.082849,-0.204331,0.948225
15.940,612840,14.767436,4.927267,10.711658,1.009950,-0.075560,0.959399
15.960,612860,14.449007,4.740520,10.512939,0.921619,0.054275,1.038684
15.980,612880,14.592659,4.869806,10.477027,0.968445,0.015431,1.133932
16.000,612900,14.130578,4.934450,10.465055,0.970041,0.078221,1.197253
16.020,612920,13.912706,5.284003,10.711658,1.036023,0.063321,1.212685
16.040,612940,15.519216,5.995081,10.852917,1.139785,-0.037248,1.163730
16.060,612960,15.052346,5.815516,10.409989,0.967381,0.137817,1.149895
16.080,612980,15.732300,5.944803,10.216059,1.063161,-0.031927,1.153620
16.100,613000,14.863204,5.722142,9.667787,0.875857,0.067578,1.179161
16.120,613020,13.084312,5.374983,9.100361,0.850316,0.054808,1.189804
16.140,613040,12.677298,5.734113,8.882488,0.978555,-0.038312,1.149895
16.160,613060,13.912706,6.627151,8.729259,1.087638,-0.021817,1.074867
16.180,613080,14.908694,6.871359,8.358158,1.146703,0.054275,1.003032
16.200,613100,14.324509,6.394913,8.044518,1.174905,0.081945,0.994518
16.220,613120,13.792996,5.987898,8.413225,1.220666,0.056936,0.985473
16.240,613140,13.108254,5.470751,8.741230,1.123822,0.197946,0.964720
16.260,613160,12.411542,5.061342,8.683769,1.013674,0.330442,0.954078
16.280,613180,12.143391,4.900931,8.748413,0.938114,0.427286,0.949821
16.300,613200,12.085930,4.759673,8.820239,0.916830,0.468259,0.943968
16.320,613220,12.140997,4.517859,8.935161,0.916830,0.490608,0.966849
16.340,613240,12.145785,4.328717,9.050082,0.894481,0.462938,1.009950
16.360,613260,12.346898,4.340688,9.186552,0.859362,0.400681,1.039748
16.380,613280,12.583924,4.343082,9.258378,0.814132,0.336827,1.057840
16.400,613300,12.571953,4.340688,9.248801,0.774756,0.268717,1.065822
16.420,613320,12.337321,4.345476,9.095572,0.753471,0.189432,1.084445
16.440,613340,12.234370,4.491522,9.198523,0.752939,0.131432,1.090831
16.460,613360,12.643779,4.783615,9.279925,0.771563,0.070771,1.072207
16.480,613380,13.125013,4.967968,9.246407,0.772627,0.039376,1.041344
16.500,613400,14.077906,5.252879,9.167398,0.792316,-0.045762,1.005161
16.520,613420,14.539987,5.329493,9.042900,0.786995,-0.100569,1.006757
16.540,613440,14.401123,5.102044,8.973468,0.779013,-0.193157,1.046665
16.560,613460,14.372393,4.833893,8.990228,0.748150,-0.228808,1.124354
16.580,613480,13.113043,4.323928,8.959103,0.649177,-0.183579,1.236098
16.600,613500,12.526464,4.431667,9.217676,0.642260,-0.245304,1.263235
16.620,613520,13.709199,5.439626,9.856929,0.663544,-0.276166,1.177033
16.640,613540,15.713146,6.119579,10.014946,0.653434,-0.240515,1.059968
16.660,613560,15.459360,5.975927,9.823410,0.558186,-0.123982,1.062629
16.680,613580,16.802507,6.567295,10.223241,0.710370,-0.298515,1.056244
16.700,613600,15.600618,5.880159,10.283096,0.557654,-0.064386,1.078592
16.720,613620,13.699622,4.580108,9.993398,0.567232,-0.012771,1.105730
16.740,613640,12.603078,3.591303,10.273520,0.661416,-0.064918,1.126482
16.760,613660,13.424289,3.754108,10.757148,0.715691,-0.146863,1.108391
16.780,613680,15.622166,4.635174,11.046846,0.726334,-0.222955,1.095620
16.800,613700,15.150508,4.740520,10.623073,0.479966,-0.050551,1.097216
16.820,613720,14.051570,4.544195,10.445902,0.541691,-0.172937,1.000372
16.840,613740,13.666103,4.431667,10.623073,0.594370,-0.232001,0.842866
16.860,613760,13.199234,4.046201,10.321404,0.551269,-0.180918,0.707710
16.880,613780,12.773067,3.505111,9.952697,0.494333,-0.146331,0.638003
16.900,613800,12.576741,3.294421,9.761160,0.482626,-0.196882,0.642260
16.920,613820,12.303802,3.394978,9.502586,0.468259,-0.261267,0.686957
16.940,613840,12.205640,3.825934,9.409213,0.503379,-0.310754,0.713563
16.960,613860,12.548011,4.328717,9.404425,0.537434,-0.290533,0.701857
16.980,613880,12.864046,4.520253,9.356541,0.608205,-0.269249,0.686957
17.000,613900,12.789825,4.316746,9.332599,0.638535,-0.228808,0.710370
17.020,613920,12.655750,4.177882,9.538500,0.710902,-0.266056,0.760921
17.040,613940,12.816162,4.199430,9.765948,0.717820,-0.246900,0.824775
17.060,613960,12.703634,4.244920,9.777920,0.701857,-0.204863,0.888096
17.080,613980,12.818556,4.520253,9.945514,0.737508,-0.208056,0.927472
17.100,614000,13.529634,4.999093,10.216059,0.782738,-0.203267,0.930133
17.120,614020,14.140155,5.157111,10.278308,0.785930,-0.153248,0.946628
17.140,614040,14.391546,5.042189,10.206482,0.781141,-0.122918,1.004629
17.160,614060,14.520833,5.056554,10.084377,0.794976,-0.130900,1.106262
17.180,614080,14.255077,5.295974,10.175357,0.842334,-0.135157,1.194593
17.200,614100,15.500062,6.469133,10.776301,1.007289,-0.217634,1.197785
17.220,614120,16.429012,6.648698,10.687716,0.939179,-0.020220,1.174373
17.240,614140,15.263036,6.133945,9.864111,0.877454,0.062789,1.156281
17.260,614160,15.028404,6.076484,9.773131,0.885967,-0.018092,1.067418
17.280,614180,13.237541,5.542577,9.227253,0.772095,0.028202,0.930665
17.300,614200,11.973403,5.374983,8.851364,0.826903,-0.079817,0.770499
17.320,614220,11.872847,5.868188,8.628703,0.861490,-0.047358,0.638535
17.340,614240,13.484144,6.861782,8.676587,0.927472,0.013303,0.534241
17.360,614260,13.737929,6.902483,8.482656,0.894481,0.174001,0.529984
17.380,614280,12.588713,6.373365,8.276755,0.837013,0.280955,0.559782
17.400,614300,12.569559,6.256049,8.729259,0.796573,0.328846,0.546480
17.420,614320,12.495338,5.925649,8.908825,0.683233,0.435268,0.530516
17.440,614340,12.121843,5.635951,8.777143,0.583195,0.490076,0.549672
17.460,614360,11.678916,5.588067,8.832211,0.547544,0.535305,0.574149
17.480,614380,11.453861,5.485116,8.892065,0.532113,0.581067,0.573085
17.500,614400,11.336545,5.334281,8.923190,0.523067,0.626297,0.592773
17.520,614420,11.245565,5.240908,8.987833,0.504975,0.643856,0.634810
17.540,614440,11.384429,5.219360,9.112331,0.503911,0.625232,0.685361
17.560,614460,11.583148,5.221754,9.188946,0.501782,0.581067,0.739636
17.580,614480,11.640609,5.236119,9.253590,0.486883,0.516149,0.805618
17.600,614500,11.623849,5.353435,9.392453,0.492736,0.432075,0.871600
17.620,614520,11.554418,5.427655,9.538500,0.483690,0.379928,0.925344
17.640,614540,11.690886,5.643134,9.583989,0.490608,0.297983,0.972170
17.660,614560,11.863270,6.030994,9.725247,0.512957,0.224552,0.980684
17.680,614580,12.864046,6.813898,10.139444,0.580535,0.117065,0.929069
17.700,614600,13.321339,6.868965,10.170568,0.594370,0.088331,0.924812
17.720,614620,13.388376,6.873753,10.196905,0.641196,-0.005321,0.959399
17.740,614640,12.988544,6.277597,10.196905,0.675783,-0.055340,1.043473
17.760,614660,11.590330,5.920861,10.321404,0.624168,-0.030863,1.149895
17.780,614680,12.871228,6.974309,11.353305,0.731655,-0.204331,1.074867
17.800,614700,13.836092,7.177817,11.623849,0.603948,-0.088863,0.981216
17.820,614720,13.991714,7.941567,11.971008,0.597562,-0.151652,0.878518
17.840,614740,14.334085,8.054094,12.627020,0.578938,-0.151120,0.728462
17.860,614760,12.215217,6.782773,12.248735,0.418240,0.129835,0.674187
17.880,614780,12.066776,6.009446,12.361263,0.518810,0.129303,0.664609
17.900,614800,11.903971,5.518635,12.473791,0.505507,0.258607,0.736976
17.920,614820,12.753913,5.760449,13.048399,0.544883,0.229341,0.800297
17.940,614840,13.026852,5.961562,12.966996,0.469323,0.244772,0.831160
17.960,614860,12.076353,6.126762,12.615048,0.454424,0.259139,0.782206
17.980,614880,12.002133,6.306327,12.713211,0.574682,0.183047,0.639067
18.000,614900,11.647791,5.995081,12.389994,0.595966,0.219230,0.511360
18.020,614920,10.955867,5.415684,11.930307,0.618315,0.246900,0.446975
18.040,614940,10.781090,5.073313,11.741165,0.690150,0.177726,0.412919
18.060,614960,10.797850,5.063736,11.597513,0.684829,0.132496,0.413451
18.080,614980,10.714052,5.197812,11.429919,0.718884,0.022349,0.429947
18.100,615000,10.591949,5.372589,11.482592,0.747618,-0.057468,0.460809
18.120,615020,10.390836,5.523423,11.511322,0.767306,-0.099505,0.502314
18.140,615040,10.453085,5.741296,11.633426,0.780077,-0.126111,0.544883
18.160,615060,10.673351,5.832275,11.765107,0.769435,-0.119725,0.606076
18.180,615080,10.943896,5.961562,11.827356,0.758793,-0.119193,0.699196
18.200,615100,11.092337,6.030994,11.889606,0.756664,-0.140478,0.799765
18.220,615120,10.953473,5.961562,11.884817,0.763582,-0.164423,0.885435
18.240,615140,10.551247,5.846641,11.982980,0.790187,-0.175597,0.966849
18.260,615160,10.649409,6.019023,12.191275,0.838609,-0.211781,1.018996
18.280,615180,11.109096,6.327875,12.200851,0.802426,-0.128771,1.072207
18.300,615200,11.379641,6.306327,12.047623,0.834885,-0.093120,1.142978
18.320,615220,11.678916,6.359000,11.892000,0.898206,-0.126643,1.229180
18.340,615240,11.820174,6.457162,11.786655,0.943436,-0.159102,1.294098
18.360,615260,11.561600,7.196970,12.114660,0.999840,-0.168680,1.310061
18.380,615280,13.385982,8.204929,12.667721,1.105198,-0.250625,1.195657
18.400,615300,11.829751,7.639898,11.858481,0.956738,0.040441,1.164262
18.420,615320,12.215217,8.027759,12.028469,0.998243,-0.010110,1.069014
18.440,615340,11.635820,8.178593,11.741165,0.870536,0.106955,0.957803
18.460,615360,11.267113,8.427590,11.317391,0.823178,0.123982,0.848187
18.480,615380,10.678140,8.092402,10.867282,0.844463,0.194221,0.805618
18.500,615400,10.618284,7.953538,10.421960,0.850316,0.263396,0.895545
18.520,615420,11.403583,8.367735,10.364499,0.873729,0.307029,0.999307
18.540,615440,11.020511,8.087613,10.340557,0.847123,0.424094,1.093491
18.560,615460,10.330980,7.663840,10.445902,0.888628,0.443250,1.142978
18.580,615480,10.220847,7.319075,10.632649,0.857233,0.536370,1.100941
18.600,615500,10.055647,6.806715,10.644621,0.806151,0.643324,1.032298
18.620,615520,9.854534,6.205771,10.426748,0.791251,0.702389,1.013142
18.640,615540,9.679757,5.940014,10.433931,0.755600,0.727930,1.032830
18.660,615560,9.758766,5.839458,10.532093,0.749747,0.716224,1.050922
18.680,615580,9.844957,5.765238,10.541670,0.734847,0.700260,1.076996
18.700,615600,10.067618,5.916072,10.620679,0.759325,0.617783,1.112115
18.720,615620,10.354922,6.007052,10.740389,0.756664,0.569893,1.133400
18.740,615640,10.371682,6.011840,10.742783,0.738040,0.522002,1.166391
18.760,615660,10.266336,6.117185,10.852917,0.743893,0.428351,1.199382
18.780,615680,10.117896,6.256049,11.087548,0.746022,0.357048,1.211620
18.800,615700,9.938332,6.323087,11.219229,0.746022,0.301176,1.206299
18.820,615720,10.043676,6.332664,11.314998,0.740169,0.247432,1.199382
18.840,615740,10.134656,6.560112,11.403583,0.755068,0.161762,1.183950
18.860,615760,10.771513,7.350199,11.956643,0.805618,0.042569,1.100941
18.880,615780,11.267113,7.489063,12.272678,0.794976,0.015963,1.024849
18.900,615800,11.683704,7.539341,12.205640,0.793380,-0.045762,1.023252
18.920,615820,11.815386,7.165846,12.066776,0.763049,-0.070771,1.131804
18.940,615840,11.202470,7.644686,12.586318,0.781141,-0.158037,1.274942
18.960,615860,12.375628,8.391677,13.414712,0.866811,-0.274570,1.246208
18.980,615880,11.635820,8.171411,13.503298,0.751343,-0.154845,1.210556
19.000,615900,12.595895,8.913613,14.128184,0.824775,-0.266588,1.082849
19.020,615920,11.628637,7.845799,13.891158,0.628425,-0.007450,0.983344
19.040,615940,10.546458,6.967127,13.706804,0.698664,-0.012771,0.989197
19.060,615960,11.001357,6.392519,13.836092,0.805618,-0.065982,1.031766
19.080,615980,11.281479,5.990293,13.567941,0.772627,-0.022349,1.099345
19.100,616000,11.405977,5.978322,13.663709,0.773160,-0.096312,1.111583
19.120,616020,10.608707,5.875371,13.582306,0.725269,-0.125579,1.045601
19.140,616040,10.192117,6.093243,13.670892,0.725802,-0.184643,0.886500
19.160,616060,10.398018,6.224925,13.481750,0.721013,-0.201139,0.715691
19.180,616080,10.328587,5.971139,12.935872,0.703453,-0.163359,0.628425
19.200,616100,10.374076,5.789180,12.698846,0.738572,-0.213909,0.635342
19.220,616120,10.479421,5.585672,12.411542,0.764646,-0.290533,0.689618
19.240,616140,10.326192,5.363012,11.990162,0.766242,-0.334699,0.744425
19.260,616160,10.117896,5.255273,11.786655,0.803490,-0.390571,0.803490
19.280,616180,9.888053,5.291186,11.549629,0.838609,-0.417708,0.837545
19.300,616200,9.873688,5.372589,11.468226,0.863619,-0.417708,0.835417
19.320,616220,9.770737,5.432444,11.437101,0.884371,-0.381525,0.833820
19.340,616240,9.897630,5.600038,11.571177,0.946628,-0.394295,0.823710
19.360,616260,10.225636,5.710171,11.676521,0.947693,-0.357048,0.839674
19.380,616280,10.319010,5.671864,11.518504,0.930665,-0.299579,0.882243
19.400,616300,10.098742,5.844246,11.705252,0.908316,-0.259671,0.953546
19.420,616320,10.170568,6.330269,12.038046,0.950885,-0.294258,0.977491
19.440,616340,10.553641,6.919243,12.265495,0.918426,-0.254882,0.993454
19.460,616360,10.809821,7.077260,12.150574,0.849252,-0.143670,1.021124
19.480,616380,11.161768,7.173028,12.061988,0.825839,-0.089927,1.074335
19.500,616400,11.362882,7.366959,11.932701,0.851912,-0.098441,1.169584
19.520,616420,10.668563,7.771579,12.193669,0.875857,-0.071835,1.296226
19.540,616440,11.959038,9.217676,13.065159,1.039216,-0.198478,1.326557
19.560,616460,11.731588,8.949526,12.643779,0.909913,0.092588,1.377107
19.580,616480,11.954249,9.076419,12.483368,0.975894,0.070771,1.380832
19.600,616500,11.683704,8.113950,11.832145,0.896078,0.153248,1.339859
19.620,616520,10.441113,7.460332,10.903194,0.876389,0.056404,1.320703
19.640,616540,10.477027,7.778761,10.934319,1.004629,-0.114404,1.228116
19.660,616560,10.651803,8.358158,10.714052,0.994518,-0.060129,1.119033
19.680,616580,10.335769,8.418014,10.706870,1.011546,0.062789,1.004629
19.700,616600,9.799467,7.970297,10.795456,0.970573,0.235726,0.907252
19.720,616620,10.340557,7.860164,10.998962,0.946096,0.304368,0.801894
19.740,616640,10.685322,7.575254,11.037270,0.824775,0.424094,0.787527
19.760,616660,10.453085,7.196970,10.788273,0.750811,0.485287,0.864151
19.780,616680,10.091560,6.785168,10.735600,0.724205,0.509232,0.975362
19.800,616700,9.701305,6.368577,10.797850,0.710370,0.530516,1.062629
19.820,616720,9.557653,6.083666,10.836157,0.677911,0.546480,1.115308
19.840,616740,9.631873,5.901707,10.903194,0.683765,0.515617,1.149895
19.860,616760,9.792285,5.908890,10.953473,0.668866,0.490076,1.170648
19.880,616780,10.127473,5.990293,10.991780,0.659820,0.425158,1.156813
19.900,616800,10.079589,5.906496,10.857705,0.640664,0.387378,1.138721
19.920,616820,9.895236,5.877765,10.903194,0.630553,0.327249,1.111583
19.940,616840,9.777920,5.995081,11.013328,0.616186,0.280955,1.070611
19.960,616860,9.715671,6.244078,11.063606,0.622572,0.224552,1.022720
19.980,616880,9.828198,6.641516,11.314998,0.644388,0.151652,0.962592
20.000,616900,10.232818,7.127539,11.592725,0.659820,0.084074,0.874793
20.020,616920,10.263943,7.299921,11.652579,0.641196,0.073432,0.813600
20.040,616940,10.541670,7.829040,11.982980,0.678976,-0.016495,0.773692
20.060,616960,11.216835,7.836222,12.033257,0.647049,0.005853,0.808811
20.080,616980,10.000581,7.232883,11.714828,0.591709,0.060129,1.023252
20.100,617000,9.727641,7.680599,12.344504,0.722077,-0.093120,1.175437
20.120,617020,11.520899,8.259995,12.813767,0.786462,-0.152716,1.173308
20.140,617040,10.876859,7.929596,12.524069,0.748682,-0.029266,1.198850
20.160,617060,11.745954,9.059659,13.759478,0.917362,-0.193689,1.102005
20.180,617080,12.095507,8.815451,14.008474,0.829031,-0.020752,0.950353
20.200,617100,11.554418,7.836222,13.630190,0.750811,0.123450,0.895545
20.220,617120,11.307815,7.029376,13.627796,0.794444,0.127707,0.963124
20.240,617140,10.948685,6.258443,13.340492,0.778481,0.121854,1.093491
20.260,617160,10.172963,6.045359,13.426683,0.833820,0.009046,1.165859
20.280,617180,9.998186,6.306327,13.886370,0.861490,-0.080881,1.083381
20.300,617200,9.780313,6.299145,13.802573,0.792316,-0.050551,0.923215
20.320,617220,9.414001,6.320693,13.476961,0.732187,-0.042569,0.774224
20.340,617240,9.674969,6.663064,13.407530,0.736976,-0.088863,0.656095
20.360,617260,10.345345,6.596025,13.017275,0.716756,-0.103762,0.613526
20.380,617280,10.280702,6.071695,12.457031,0.722609,-0.166019,0.669930
20.400,617300,10.050858,5.643134,12.291832,0.738572,-0.277231,0.746554
20.420,617320,9.507375,5.401319,12.114660,0.722609,-0.336295,0.793912
20.440,617340,9.133880,5.410896,12.038046,0.707178,-0.333635,0.808811
20.460,617360,9.236830,5.554548,11.848905,0.700792,-0.292130,0.815729
20.480,617380,9.423578,5.748478,11.710040,0.684829,-0.227744,0.829031
20.500,617400,9.588778,5.863400,11.755530,0.713031,-0.205395,0.846059
20.520,617420,9.653421,5.995081,11.901577,0.745490,-0.189964,0.866279
20.540,617440,9.919178,6.129156,12.016499,0.807747,-0.228276,0.884903
20.560,617460,10.275913,6.189012,12.064383,0.832224,-0.228276,0.923747
20.580,617480,10.232818,6.023811,12.085930,0.856169,-0.241047,0.991858
20.600,617500,10.180145,6.110003,12.236765,0.908848,-0.302772,1.060500
20.620,617520,10.326192,6.375759,12.550406,0.935454,-0.300112,1.109987
20.640,617540,10.477027,6.715736,12.761095,0.951417,-0.263928,1.145638
20.660,617560,10.783484,6.976704,12.849681,0.931197,-0.197946,1.182886
20.680,617580,11.082760,7.247249,12.773067,0.949289,-0.169744,1.209492
20.700,617600,11.353305,7.364564,12.576741,0.984940,-0.152184,1.254189
20.720,617620,11.384429,8.410830,13.041217,1.065289,-0.170276,1.278134
20.740,617640,12.943054,9.203311,13.242330,1.096152,-0.154845,1.220134
20.760,617660,11.666945,8.937555,12.574347,1.017399,0.044165,1.245144
20.780,617680,11.832145,9.016563,12.811374,1.084445,-0.050551,1.158409
20.800,617700,10.587160,8.470686,12.047623,0.974298,-0.021285,1.064757
20.820,617720,9.679757,7.987057,11.334151,1.011014,-0.148992,0.988665
20.840,617740,9.251195,7.924808,10.867282,1.059436,-0.202203,0.986005
20.860,617760,9.840169,8.456321,10.757148,1.041344,-0.093120,0.998775
20.880,617780,9.945514,8.353370,10.601525,0.987601,0.116001,1.034959
20.900,617800,9.311050,8.034941,10.582372,0.941307,0.261799,1.045069
20.920,617820,9.732430,7.687782,10.850522,0.873197,0.350662,0.957271
20.940,617840,10.065224,7.232883,10.709264,0.804554,0.379928,0.926940
20.960,617860,9.904813,6.809110,10.618284,0.688022,0.462406,0.979087
20.980,617880,9.428367,6.378153,10.726024,0.653966,0.442718,1.040280
21.000,617900,9.059659,6.165070,10.824186,0.603948,0.468259,1.090831
21.020,617920,8.971074,6.083666,11.022904,0.605544,0.443782,1.111051
21.040,617940,9.076419,6.133945,11.133038,0.611929,0.391635,1.134996
21.060,617960,9.344569,6.272809,11.202470,0.599691,0.367158,1.148299
21.080,617980,9.564836,6.344635,11.171345,0.564571,0.350130,1.162134
21.100,618000,9.579201,6.327875,11.212047,0.570425,0.292130,1.203107
21.120,618020,9.560047,6.430826,11.252748,0.608205,0.188900,1.249932
21.140,618040,9.447520,6.519411,11.295844,0.625232,0.121854,1.300483
21.160,618060,9.442732,6.560112,11.259931,0.664077,0.053211,1.339327
21.180,618080,9.593566,7.019799,11.554418,0.725802,-0.040973,1.328685
21.200,618100,10.541670,7.656657,11.887212,0.792316,-0.168680,1.218538
21.220,618120,10.805033,7.630321,11.913548,0.831160,-0.255414,1.148831
21.240,618140,11.487380,7.694964,11.903971,0.856169,-0.360240,1.124354
21.260,618160,11.233594,6.919243,11.563994,0.852444,-0.419305,1.238758
21.280,618180,10.280702,7.235278,12.035652,0.872665,-0.538498,1.375511
21.300,618200,11.532869,7.750031,12.813767,0.930133,-0.667269,1.357951
21.320,618220,11.487380,8.236053,12.938266,0.824242,-0.597030,1.328153
21.340,618240,12.646173,9.045294,13.670892,0.835949,-0.596498,1.200446
21.360,618260,11.990162,8.643068,13.737929,0.655563,-0.340552,1.160538
21.380,618280,11.971008,7.915231,13.690045,0.634810,-0.230405,1.183418
21.400,618300,12.064383,6.976704,12.854469,0.661416,-0.161762,1.285584
21.420,618320,12.200851,6.524199,12.758701,0.748682,-0.265524,1.363804
21.440,618340,11.935096,6.124368,13.077129,0.742297,-0.308625,1.313786
21.460,618360,10.776301,5.645528,12.847286,0.692811,-0.303304,1.199914
21.480,618380,10.429143,5.746084,12.691663,0.682700,-0.288405,0.991326
21.500,618400,10.505757,5.705383,12.260707,0.640131,-0.154845,0.794444
21.520,618420,10.467450,5.432444,11.882423,0.639067,-0.075028,0.701324
21.540,618440,10.390836,5.255273,11.640609,0.675251,-0.096312,0.660352
21.560,618460,10.359711,5.281609,11.654974,0.705581,-0.126643,0.639599
21.580,618480,10.278308,5.267244,11.563994,0.710902,-0.139413,0.642792
21.600,618500,10.005369,5.363012,11.396400,0.750811,-0.172937,0.665673
21.620,618520,9.895236,5.521029,11.465832,0.790719,-0.181450,0.676315
21.640,618540,9.964667,5.664681,11.568783,0.827435,-0.168148,0.683233
21.660,618560,10.062830,5.676652,11.595119,0.832224,-0.115468,0.719948
21.680,618580,10.347740,5.875371,11.712435,0.876922,-0.129303,0.761985
21.700,618600,10.723629,5.985504,11.930307,0.884903,-0.120790,0.805086
21.720,618620,10.661380,5.791574,11.915942,0.926940,-0.167083,0.877454
21.740,618640,10.319010,5.896919,11.982980,0.872133,-0.139413,0.973766
21.760,618660,10.311827,6.481104,12.349293,0.875857,-0.145799,1.010482
21.780,618680,10.742783,7.022193,12.519280,0.899270,-0.127175,1.014739
21.800,618700,11.221623,7.137115,12.327744,0.865215,-0.021817,1.051454
21.820,618720,11.619061,7.060501,12.107478,0.901399,-0.006385,1.135528
21.840,618740,11.963826,7.017405,11.982980,0.948225,-0.045762,1.247272
21.860,618760,11.314998,7.201759,12.167333,0.999307,-0.068110,1.357419
21.880,618780,12.109872,8.252813,12.710816,1.087638,-0.162294,1.337731
21.900,618800,11.779472,7.934384,12.073959,0.999840,0.055340,1.303676
21.920,618820,11.484985,8.365341,12.100295,1.033895,0.028734,1.215345
21.940,618840,12.004527,8.544906,12.196063,0.975894,0.081413,1.064225
21.960,618860,11.128249,8.255207,11.415554,0.854573,0.150588,0.980151
21.980,618880,10.759542,7.802703,11.149797,0.928536,0.063321,0.924280
22.000,618900,10.237606,7.196970,10.635044,0.865215,0.142606,0.988133
22.020,618920,10.534488,7.647080,10.283096,0.894481,0.139413,1.061032
22.040,618940,10.931925,8.238448,10.383653,0.900867,0.253286,1.049326
22.060,618960,10.321404,7.915231,10.364499,0.909380,0.353855,1.002500
22.080,618980,10.273520,7.503428,10.481815,0.927472,0.359176,0.920555
22.100,619000,10.412383,7.077260,10.678140,0.874793,0.365561,0.849252
22.120,619020,10.383653,6.663064,10.699687,0.759325,0.393231,0.847123
22.140,619040,10.026917,6.311116,10.639832,0.663012,0.410259,0.922683
22.160,619060,9.698911,6.217742,10.714052,0.642792,0.374607,1.001968
22.180,619080,9.607931,6.256049,10.723629,0.641196,0.369286,1.063693
22.200,619100,9.622296,6.303933,10.656591,0.617783,0.383121,1.104666
22.220,619120,9.866506,6.323087,10.733206,0.692278,0.337891,1.132868
22.240,619140,9.971850,6.296751,10.730812,0.633214,0.416644,1.156281
22.260,619160,9.739613,6.306327,10.800244,0.648645,0.406534,1.171180
22.280,619180,9.655815,6.416461,10.874464,0.679508,0.356515,1.187143
22.300,619200,9.603143,6.497863,11.006145,0.677379,0.358112,1.183950
22.320,619220,9.718064,6.641516,11.226412,0.683765,0.312350,1.198318
22.340,619240,9.921572,6.749255,11.312603,0.698132,0.248497,1.221198
22.360,619260,10.374076,7.453150,11.745954,0.763582,0.124514,1.205767
22.380,619280,11.465832,7.996634,12.157756,0.780609,0.059064,1.150427
22.400,619300,11.417948,7.644686,11.839328,0.768371,0.011706,1.180758
22.420,619320,11.590330,7.362170,11.789049,0.814664,-0.146863,1.246208
22.440,619340,10.453085,7.127539,11.935096,0.817325,-0.225084,1.352098
22.460,619360,11.398794,8.042124,12.861651,0.933326,-0.453360,1.307933
22.480,619380,11.580753,7.917625,12.962208,0.819453,-0.327249,1.239290
22.500,619400,12.176909,8.995016,13.577518,0.865747,-0.430479,1.112647
22.520,619420,12.787432,8.813056,13.778631,0.751343,-0.264992,0.965784
22.540,619440,11.702858,7.766790,13.201628,0.640664,-0.083542,0.986537
22.560,619460,11.271901,6.725313,13.194446,0.726334,-0.077156,1.098812
22.580,619480,11.149797,6.229713,13.158532,0.738040,-0.062789,1.209492
22.600,619500,11.499351,6.347029,13.575124,0.751875,-0.076092,1.169584
22.620,619520,10.496181,6.050148,13.340492,0.634810,0.071835,1.083913
22.640,619540,9.897630,6.050148,12.981361,0.670462,0.065450,0.925876
22.660,619560,10.383653,6.172252,12.732365,0.723141,0.086734,0.758260
22.680,619580,10.668563,5.918467,12.136209,0.754536,0.110679,0.700260
22.700,619600,10.608707,5.616797,11.877635,0.826371,0.022881,0.719416
22.720,619620,10.477027,5.398925,11.880029,0.851380,-0.076092,0.739104
22.740,619640,10.199299,5.231331,11.839328,0.889160,-0.198478,0.748682
22.760,619660,9.895236,5.145139,11.762712,0.868940,-0.251157,0.764114
22.780,619680,9.730036,5.209783,11.645397,0.848720,-0.257542,0.776352
22.800,619700,9.811439,5.382165,11.585542,0.852976,-0.256478,0.782206
22.820,619720,9.890448,5.449203,11.556811,0.825839,-0.205928,0.797105
22.840,619740,9.947908,5.683835,11.674128,0.832756,-0.213377,0.819453
22.860,619760,10.307038,5.911284,11.832145,0.915234,-0.284148,0.834885
22.880,619780,10.393229,5.906496,11.824963,0.877986,-0.231469,0.881178
22.900,619800,10.010158,6.133945,12.018892,0.891289,-0.221891,0.937050
22.920,619820,10.206482,6.746861,12.483368,0.933858,-0.232533,0.958867
22.940,619840,10.848128,7.362170,12.679692,0.899802,-0.128239,0.978555
22.960,619860,11.142614,7.374141,12.524069,0.899802,-0.021817,1.040812
22.980,619880,11.456255,7.283162,12.346898,0.913105,0.013835,1.144042
23.000,619900,11.832145,7.347805,12.172121,0.972170,-0.030330,1.265364
23.020,619920,11.061212,7.991845,12.526464,1.006225,-0.031927,1.349970
23.040,619940,12.270284,9.052477,13.292608,1.100941,-0.087266,1.299419
23.060,619960,10.907983,8.544906,12.528857,0.940775,0.218698,1.316447
23.080,619980,11.585542,9.074024,12.818556,1.029638,0.104826,1.230244
23.100,620000,11.042058,8.808268,11.968615,0.835949,0.230937,1.145638
23.120,620020,10.740389,8.595184,11.379641,0.893949,0.051083,1.066886
23.140,620040,10.019734,8.195353,10.963050,0.940775,-0.005853,1.081253
23.160,620060,9.861717,8.432379,10.740389,0.953546,0.067046,1.116904
23.180,620080,9.734824,8.420407,10.802638,0.970041,0.234662,1.108923
23.200,620100,9.054871,7.989451,10.635044,0.942904,0.426222,1.096684
23.220,620120,9.447520,7.647080,10.919954,0.959931,0.485287,1.031234
23.240,620140,9.967062,7.105990,10.869676,0.906188,0.543287,0.991858
23.260,620160,10.050858,6.639122,10.833763,0.800297,0.592241,1.036023
23.280,620180,9.679757,6.248867,10.833763,0.753471,0.590645,1.117969
23.300,620200,9.277532,6.040571,10.852917,0.756664,0.525195,1.183950
23.320,620220,9.212888,6.023811,10.905589,0.757196,0.517746,1.226519
23.340,620240,9.337387,6.026206,10.946290,0.718884,0.547544,1.257382
23.360,620260,9.689334,6.107608,10.967838,0.734847,0.487415,1.286648
23.380,620280,9.995792,6.222530,11.015722,0.747618,0.435800,1.313786
23.400,620300,9.947908,6.172252,11.087548,0.734847,0.413984,1.331878
23.420,620320,9.744401,6.181829,11.207258,0.748682,0.343213,1.338795
23.440,620340,9.761160,6.299145,11.432313,0.755600,0.287873,1.336667
23.460,620360,9.809045,6.373365,11.432313,0.773160,0.216038,1.326557
23.480,620380,9.885659,6.560112,11.523293,0.829563,0.098973,1.310593
23.500,620400,10.529699,7.477092,12.248735,0.901931,-0.049486,1.222263
23.520,620420,11.839328,7.728483,12.399570,0.920023,-0.153781,1.103069
23.540,620440,11.745954,7.366959,11.884817,0.851380,-0.201139,1.112115
23.560,620460,12.358870,7.010222,11.817780,0.874261,-0.406534,1.172776
23.580,620480,10.994174,6.473921,11.714828,0.839674,-0.484222,1.322832
23.600,620500,11.568783,7.663840,12.811374,0.880646,-0.717820,1.304740
23.620,620520,11.657368,7.445967,12.823344,0.842334,-0.691746,1.202042
23.640,620540,11.748347,8.518570,13.060370,0.730058,-0.630553,1.088702
23.660,620560,12.164939,8.621520,13.400347,0.726866,-0.518278,0.915234
23.680,620580,11.013328,7.649475,12.876017,0.593838,-0.233065,0.900334
23.700,620600,10.749966,6.751649,12.770672,0.701324,-0.228276,1.009418
23.720,620620,11.202470,6.643910,12.531252,0.741233,-0.213377,1.126482
23.740,620640,11.951855,6.864176,12.794614,0.799765,-0.241047,1.095620
23.760,620660,11.470620,6.569689,12.646173,0.749747,-0.155377,1.014207
23.780,620680,10.694899,6.428432,12.610260,0.781673,-0.143138,0.902463
23.800,620700,11.066000,6.557718,12.603078,0.818921,-0.087266,0.734315
23.820,620720,11.224017,6.220136,12.064383,0.785930,0.047358,0.658755
23.840,620740,10.893618,5.738902,11.753136,0.785930,0.088863,0.676315
23.860,620760,10.551247,5.556942,11.736377,0.820518,0.003725,0.693343
23.880,620780,10.314221,5.487510,11.554418,0.836481,-0.079285,0.698664
23.900,620800,10.115502,5.492299,11.264719,0.852976,-0.136753,0.714095
23.920,620820,9.983821,5.604826,11.192893,0.887032,-0.203799,0.725802
23.940,620840,10.146626,5.844246,11.178528,0.906188,-0.238386,0.742297
23.960,620860,10.158598,5.872977,11.051635,0.932261,-0.262864,0.777949
23.980,620880,10.086772,5.980716,11.190498,0.962060,-0.296387,0.833820
24.000,620900,10.244789,6.023811,11.176133,0.963656,-0.300112,0.896610
24.020,620920,9.943120,5.899313,11.073183,0.926408,-0.243175,0.982812
24.040,620940,9.445126,6.141128,11.267113,0.951417,-0.216570,1.060500
24.060,620960,9.504981,6.825869,11.968615,0.968977,-0.141010,1.080721
24.080,620980,10.330980,7.323863,12.260707,0.943968,0.004789,1.090831
24.100,621000,10.369287,7.015011,11.882423,0.879582,0.214973,1.189804
24.120,621020,11.015722,7.398083,11.997345,0.906188,0.228808,1.293566
24.140,621040,11.458650,7.570466,11.939884,0.923215,0.217102,1.373915
24.160,621060,11.235989,8.494628,12.358870,1.018996,0.129835,1.446814
24.180,621080,12.296620,8.731653,12.672509,1.100941,0.119725,1.468099
24.200,621100,10.828975,8.671799,12.236765,1.038152,0.276166,1.536209
24.220,621120,12.061988,9.026140,12.555194,1.140849,0.208588,1.465970
24.240,621140,10.915166,8.238448,11.425131,1.009418,0.322992,1.413291
24.260,621160,10.613496,8.015787,11.032481,1.080721,0.187836,1.309529
24.280,621180,10.500969,8.319851,10.781090,1.106794,0.101101,1.185547
24.300,621200,10.783484,8.844181,10.819398,1.118501,0.112808,1.030702
24.320,621220,10.388441,8.583213,10.817003,1.084978,0.233065,0.927472
24.340,621240,10.160992,8.250419,10.891224,1.054115,0.302772,0.870536
24.360,621260,10.771513,7.975086,10.888829,0.966849,0.336295,0.813068
24.380,621280,10.465055,7.508216,10.675745,0.794976,0.438461,0.834352
24.400,621300,10.043676,7.053318,10.699687,0.732187,0.415048,0.913105
24.420,621320,9.495404,6.643910,10.515334,0.686425,0.413451,1.006757
24.440,621340,9.155427,6.447585,10.443508,0.695471,0.403341,1.094023
24.460,621360,9.157822,6.284780,10.414778,0.700260,0.450167,1.170116
24.480,621380,9.339781,6.169858,10.419566,0.715691,0.471984,1.232373
24.500,621400,9.622296,6.191406,10.517728,0.742297,0.444314,1.269621
24.520,621420,10.046070,6.291962,10.477027,0.737508,0.418240,1.301547
24.540,621440,10.187328,6.356606,10.520123,0.754004,0.363433,1.324960
24.560,621460,10.230424,6.471527,10.618284,0.804022,0.261799,1.331878
24.580,621480,10.383653,6.679823,10.776301,0.822646,0.177193,1.319107
24.600,621500,10.627861,6.818686,10.936713,0.823710,0.099505,1.267492
24.620,621520,10.860099,7.026982,11.075577,0.835417,-0.026074,1.204171
24.640,621540,11.530476,7.383718,11.204864,0.851380,-0.166551,1.120097
24.660,621560,11.868058,7.321469,11.061212,0.810940,-0.223487,1.087106
24.680,621580,11.959038,7.352593,10.955867,0.785930,-0.295855,1.107326
24.700,621600,11.628637,6.883330,10.658986,0.722077,-0.308093,1.160005
24.720,621620,10.311827,6.397307,10.436325,0.676847,-0.335231,1.226519
24.740,621640,9.871294,7.108385,11.164163,0.712499,-0.433140,1.174373
24.760,621660,11.621455,7.620744,11.705252,0.697600,-0.408662,1.048262
24.780,621680,11.267113,7.769185,11.408371,0.612462,-0.311286,1.069546
24.800,621700,12.861651,9.344569,12.480973,0.706113,-0.424094,0.993454
24.820,621720,12.897565,8.868123,12.459426,0.587452,-0.148459,0.964720
24.840,621740,11.769896,7.687782,12.332533,0.557122,0.010642,1.033363
24.860,621760,11.532869,6.947973,12.473791,0.630553,-0.021817,1.111051
24.880,621780,11.441890,6.301539,12.294226,0.625764,-0.038844,1.144574
24.900,621800,11.597513,6.071695,12.382812,0.698132,-0.187304,1.095620
24.920,621820,11.271901,6.009446,12.629414,0.643324,-0.166551,1.006757
24.940,621840,10.630256,5.932832,12.509704,0.570957,-0.086202,0.897674
24.960,621860,10.228029,5.884948,12.406754,0.552865,-0.026606,0.768903
24.980,621880,10.304645,6.083666,12.220005,0.550736,0.018092,0.664077
25.000,621900,10.544065,5.906496,12.026075,0.580003,0.020220,0.621507
25.020,621920,10.649409,5.650316,11.796232,0.582131,-0.014899,0.642792
25.040,621940,10.663774,5.465962,11.722012,0.649709,-0.097909,0.709838
25.060,621960,10.295067,5.487510,11.628637,0.667801,-0.143670,0.798169
25.080,621980,10.189722,5.791574,11.568783,0.741765,-0.205395,0.860426
25.100,622000,10.388441,6.095637,11.568783,0.798169,-0.190496,0.874793
25.120,622020,10.496181,6.121974,11.501745,0.843398,-0.147395,0.872665
25.140,622040,10.826580,6.143522,11.571177,0.899802,-0.161762,0.877454
25.160,622060,11.171345,6.093243,11.607090,0.928536,-0.160698,0.902463
25.180,622080,11.145009,5.841852,11.506534,0.928004,-0.143138,0.971638
25.200,622100,10.828975,5.710171,11.444284,0.949289,-0.175597,1.054115
25.220,622120,10.539276,5.971139,11.700463,0.987069,-0.218698,1.097216
25.240,622140,10.745177,6.572083,12.054806,1.021656,-0.222955,1.082317
25.260,622160,10.927136,7.003040,12.109872,0.979619,-0.119193,1.064225
25.280,622180,11.334151,7.208941,12.073959,0.980151,-0.060129,1.071675
25.300,622200,11.547235,7.163452,11.894394,0.973766,-0.010642,1.128611
25.320,622220,11.125855,7.369353,12.045229,0.996647,-0.001064,1.239822
25.340,622240,12.267890,9.038112,12.928689,1.037087,-0.055872,1.266960
25.360,622260,12.559982,9.282320,12.605472,0.949821,0.181983,1.304208
25.380,622280,11.975797,9.617508,12.342110,0.907252,0.253286,1.315914
25.400,622300,12.287044,9.325416,12.061988,0.919491,0.219230,1.205767
25.420,622320,11.238382,7.888895,10.737994,0.845527,0.221359,1.196721
25.440,622340,10.137050,7.314286,10.084377,0.946628,0.068643,1.264300
25.460,622360,10.405201,8.085219,10.558430,1.066886,0.008514,1.258446
25.480,622380,10.304645,8.137892,10.587160,0.972702,0.313414,1.177033
25.500,622400,9.229648,7.493851,10.297462,0.940775,0.509764,1.091363
25.520,622420,9.641450,7.199365,10.685322,0.923747,0.572021,0.947693
25.540,622440,10.522516,6.845023,10.752359,0.786995,0.674719,0.875857
25.560,622460,10.378864,6.323087,10.512939,0.710902,0.673654,0.947160
25.580,622480,9.825804,6.143522,10.601525,0.638535,0.664609,1.097216
25.600,622500,9.327810,6.287174,10.704475,0.583195,0.750811,1.211620
25.620,622520,9.109938,6.227319,10.776301,0.589049,0.832756,1.286116
25.640,622540,9.176975,6.114791,10.984597,0.615654,0.869472,1.323364
25.660,622560,9.701305,6.074090,11.195287,0.660352,0.835417,1.327089
25.680,622580,10.046070,5.966351,11.269507,0.699196,0.763582,1.337199
25.700,622600,10.077195,5.863400,11.379641,0.703985,0.687489,1.352630
25.720,622620,10.048465,5.949591,11.568783,0.698664,0.587984,1.345713
25.740,622640,10.127473,6.050148,11.731588,0.733783,0.437929,1.308465
25.760,622660,9.933543,6.004658,11.836933,0.755068,0.305433,1.274942
25.780,622680,10.019734,6.720524,12.480973,0.810940,0.102698,1.198318
25.800,622700,11.561600,7.618350,13.036428,0.850316,-0.063854,1.036555
25.820,622720,11.384429,7.043741,12.363658,0.728994,-0.000532,1.012078
25.840,622740,11.678916,6.993463,12.346898,0.832756,-0.225616,1.022188
25.860,622760,10.948685,6.198588,12.030864,0.767838,-0.224019,1.123822
25.880,622780,9.234436,6.835446,12.536040,0.820518,-0.388442,1.178629
25.900,622800,12.009315,8.695741,13.915100,0.940775,-0.650242,0.942904
25.920,622820,10.881647,7.644686,12.765883,0.721545,-0.320332,0.806683
25.940,622840,11.499351,8.923190,13.534422,0.841802,-0.545947,0.663544
25.960,622860,11.336545,8.152257,13.656527,0.745490,-0.343213,0.551269
25.980,622880,10.903194,7.661446,13.290214,0.679508,-0.244772,0.550736
26.000,622900,11.549629,6.952762,13.508086,0.768371,-0.266588,0.633214
26.020,622920,11.470620,6.222530,12.950237,0.653966,-0.147927,0.810407
26.040,622940,11.698070,6.141128,13.235147,0.699728,-0.219230,0.937582
26.060,622960,10.536881,6.026206,13.141773,0.620975,-0.135689,0.991858
26.080,622980,9.662998,6.291962,13.192051,0.632150,-0.131432,0.898738
26.100,623000,9.749189,6.469133,13.168109,0.649709,-0.076624,0.704517
26.120,623020,9.770737,6.294356,12.717999,0.608205,0.041505,0.583727
26.140,623040,10.117896,6.203377,12.576741,0.686957,-0.012771,0.535305
26.160,623060,10.364499,5.980716,12.358870,0.738040,-0.081413,0.541691
26.180,623080,10.251971,5.767632,12.246342,0.783270,-0.170808,0.594902
26.200,623100,9.940725,5.815516,12.198458,0.804554,-0.252221,0.642260
26.220,623120,9.672575,5.829881,12.114660,0.808279,-0.271910,0.672058
26.240,623140,9.423578,5.793968,11.999739,0.802426,-0.258075,0.708242
26.260,623160,9.411607,5.829881,12.040441,0.781141,-0.231469,0.747086
26.280,623180,9.560047,5.942409,12.023681,0.782206,-0.219763,0.793912
26.300,623200,9.710882,6.021417,12.045229,0.794444,-0.234130,0.846059
26.320,623220,9.569624,5.978322,12.033257,0.804554,-0.228276,0.920555
26.340,623240,9.550470,6.136339,12.133814,0.854573,-0.226148,1.006757
26.360,623260,9.746795,6.663064,12.430696,0.921087,-0.213909,1.053051
26.380,623280,9.998186,7.038953,12.674904,0.907252,-0.126111,1.074867
26.400,623300,10.055647,7.141904,12.725182,0.917894,-0.064386,1.107326
26.420,623320,10.338163,7.182605,12.785037,0.932261,-0.015431,1.149895
26.440,623340,10.366894,7.173028,12.670115,0.927472,0.025541,1.237694
26.460,623360,10.146626,8.305486,13.204022,0.974830,0.043633,1.274410
26.480,623380,11.626244,9.215282,13.692439,1.043473,0.021285,1.211088
26.500,623400,10.601525,9.344569,13.323732,0.979087,0.214441,1.228116
26.520,623420,11.798626,10.110714,13.958196,1.083381,0.041505,1.137657
26.540,623440,11.731588,9.311050,12.773067,0.918426,0.107487,1.050922
26.560,623460,10.960655,8.121132,11.511322,0.895545,-0.046826,1.050922
26.580,623480,9.986216,7.335834,10.872070,0.966316,-0.258075,1.141381
26.600,623500,9.658210,7.472303,10.711658,0.993454,-0.355451,1.225987
26.620,623520,9.658210,7.807492,10.836157,0.972170,-0.286277,1.210024
26.640,623540,8.916007,7.647080,10.668563,0.945564,-0.142074,1.156281
26.660,623560,8.939949,7.606379,10.855310,0.916298,-0.009046,1.024317
26.680,623580,9.524135,7.268796,10.960655,0.834352,0.187304,0.907252
26.700,623600,9.742006,6.706159,11.006145,0.728462,0.307029,0.909913
26.720,623620,9.655815,6.356606,10.795456,0.701324,0.266056,0.991858
26.740,623640,9.303867,6.397307,10.812215,0.669398,0.299579,1.074867
26.760,623660,9.176975,6.356606,10.958261,0.640131,0.391635,1.126482
26.780,623680,9.203311,6.215348,10.955867,0.638535,0.425690,1.159473
26.800,623700,9.423578,6.368577,11.037270,0.652370,0.384717,1.148831
26.820,623720,9.758766,6.349423,11.197681,0.680040,0.346937,1.128611
26.840,623740,9.737218,6.179435,11.207258,0.686425,0.291598,1.153620
26.860,623760,9.643845,6.167464,11.300632,0.678976,0.222955,1.204171
26.880,623780,9.629479,6.143522,11.283873,0.671526,0.169212,1.248868
26.900,623800,9.409213,5.961562,11.235989,0.651306,0.117597,1.290373
26.920,623820,9.282320,6.490681,11.609484,0.701324,-0.026074,1.257914
26.940,623840,10.522516,7.857770,12.375628,0.771031,-0.202203,1.092959
26.960,623860,11.274296,8.027759,12.188881,0.760921,-0.217102,0.964188
26.980,623880,11.540052,8.106767,11.820174,0.767838,-0.268717,0.937582
27.000,623900,11.544841,7.577648,11.465832,0.817857,-0.354919,1.004097
27.020,623920,10.149021,7.611167,11.647791,0.843398,-0.439525,1.128611
27.040,623940,11.772290,8.358158,12.655750,0.950353,-0.651838,1.083381
27.060,623960,11.149797,7.912837,11.987768,0.807747,-0.565636,1.081785
27.080,623980,11.908759,9.337387,12.914324,0.819986,-0.684829,0.971105
27.100,624000,11.824963,8.841787,12.895170,0.735380,-0.534241,0.839142
27.120,624020,10.354922,7.489063,12.370840,0.603948,-0.301708,0.897674
27.140,624040,10.091560,6.739678,12.445061,0.642260,-0.236258,1.045601
27.160,624060,11.111490,6.861782,12.387600,0.651306,-0.211781,1.149363
27.180,624080,11.848905,7.101202,12.440272,0.627893,-0.193157,1.117436
27.200,624100,11.015722,6.856994,12.416330,0.592241,-0.159634,1.023252
27.220,624120,10.515334,6.730101,12.744335,0.590113,-0.163359,0.847655
27.240,624140,10.398018,6.387730,12.461820,0.561911,-0.086734,0.676315
27.260,624160,10.158598,6.157887,12.155362,0.537966,-0.039908,0.602351
27.280,624180,10.024523,6.042965,12.181698,0.477837,-0.000532,0.580003
27.300,624200,9.959879,5.899313,11.930307,0.561379,-0.091523,0.576278
27.320,624220,9.885659,5.877765,11.611878,0.580003,-0.131964,0.596498
27.340,624240,9.722853,5.889736,11.537658,0.635342,-0.184643,0.650242
27.360,624260,9.555259,5.951985,11.427525,0.693343,-0.200074,0.723141
27.380,624280,9.686940,6.074090,11.314998,0.769967,-0.209652,0.791784
27.400,624300,9.701305,5.978322,11.192893,0.844995,-0.209652,0.857233
27.420,624320,9.765948,6.009446,11.317391,0.870004,-0.214441,0.924280
27.440,624340,9.885659,6.069301,11.499351,0.918958,-0.258075,0.988665
27.460,624360,9.509769,6.047753,11.638214,0.964720,-0.287873,1.069546
27.480,624380,9.267955,6.430826,12.133814,1.024849,-0.344809,1.115308
27.500,624400,9.789890,7.321469,12.799402,1.049326,-0.378864,1.081785
27.520,624420,11.255142,7.991845,13.165715,0.997179,-0.337891,1.021656
27.540,624440,11.748347,7.747637,12.708423,0.892885,-0.220295,1.089767
27.560,624460,12.322956,7.261614,12.332533,0.918426,-0.269781,1.269621
27.580,624480,11.420342,6.957550,11.944673,0.867876,-0.256478,1.514925
27.600,624500,11.010934,8.315063,12.559982,0.932261,-0.294258,1.586760
27.620,624520,11.362882,8.269572,12.430696,0.902995,-0.056404,1.502686
27.640,624540,11.027693,8.906430,12.217611,0.954078,0.032991,1.418612
27.660,624560,12.876017,9.179369,12.430696,1.018996,0.078753,1.235565
27.680,624580,11.279084,7.814674,10.886436,0.831692,0.291066,1.211088
27.700,624600,10.326192,7.285556,10.879252,0.982280,0.033523,1.173308
27.720,624620,9.428367,7.094019,10.907983,0.941839,-0.001064,1.140849
27.740,624640,9.119514,7.539341,10.752359,0.953546,-0.019156,1.091895
27.760,624660,9.730036,8.128315,11.137826,0.978555,0.083542,1.018996
27.780,624680,9.775525,8.032547,11.082760,0.840738,0.326717,1.000904
27.800,624700,9.837775,7.915231,11.006145,0.829031,0.394295,0.999840
27.820,624720,10.127473,7.613562,11.149797,0.799765,0.445910,1.013674
27.840,624740,10.316615,7.158663,11.152191,0.742829,0.471452,1.081253
27.860,624760,10.156203,6.847417,10.965444,0.673654,0.508168,1.191932
27.880,624780,9.847352,6.629545,11.032481,0.686957,0.513489,1.291437
27.900,624800,9.648633,6.382942,11.092337,0.710902,0.519874,1.343584
27.920,624820,9.598354,6.064513,11.018116,0.733251,0.504443,1.352098
27.940,624840,9.911995,5.918467,11.013328,0.774224,0.448039,1.345713
27.960,624860,10.304645,5.841852,10.998962,0.800829,0.381525,1.345181
27.980,624880,10.328587,5.702989,10.972627,0.802958,0.336827,1.360612
28.000,624900,10.182540,5.645528,10.998962,0.798701,0.272442,1.370722
28.020,624920,9.981427,5.645528,11.089942,0.802958,0.211781,1.359015
28.040,624940,9.809045,5.635951,11.140221,0.787527,0.155377,1.332942
28.060,624960,9.504981,5.822699,11.245565,0.806683,0.055872,1.279731
28.080,624980,10.000581,6.981492,11.887212,0.867343,-0.135689,1.120629
28.100,625000,11.547235,7.766790,12.275072,0.864151,-0.221359,0.912041
28.120,625020,11.585542,7.704541,11.870452,0.837545,-0.294258,0.854573
28.140,625040,12.409147,7.546524,11.858481,0.882775,-0.468791,0.927472
28.160,625060,10.941502,7.481880,11.990162,0.829031,-0.520938,1.174905
28.180,625080,12.148179,8.829816,13.146562,0.940775,-0.793912,1.221198
28.200,625100,11.884817,8.554482,12.847286,0.783270,-0.608737,1.208960
28.220,625120,12.828133,9.531317,13.400347,0.858298,-0.739104,1.108923
28.240,625140,12.981361,8.913613,13.220781,0.723141,-0.494333,1.037087
28.260,625160,11.925519,7.359776,12.488156,0.641196,-0.297983,1.115308
28.280,625180,11.092337,5.999869,12.164939,0.688554,-0.260735,1.270153
28.300,625200,11.212047,6.009446,12.440272,0.725269,-0.343213,1.306336
28.320,625220,11.884817,6.294356,12.820951,0.695471,-0.301708,1.175969
28.340,625240,11.113884,5.863400,12.394782,0.597030,-0.159102,1.051987
28.360,625260,10.620679,5.753267,12.239159,0.628425,-0.179854,0.873197
28.380,625280,11.092337,5.913678,11.951855,0.610865,-0.154313,0.669398
28.400,625300,11.231200,5.738902,11.386824,0.605544,-0.125579,0.562443
28.420,625320,10.812215,5.499481,11.190498,0.639067,-0.161762,0.527324
28.440,625340,10.630256,5.499481,11.245565,0.683765,-0.221891,0.492204
28.460,625360,10.601525,5.410896,11.156980,0.748682,-0.317139,0.494333
28.480,625380,10.481815,5.451597,11.039664,0.767306,-0.340020,0.548076
28.500,625400,10.330980,5.619191,11.037270,0.784866,-0.326185,0.619379
28.520,625420,10.292673,5.753267,10.979809,0.825839,-0.291066,0.680572
28.540,625440,10.249578,5.882554,10.975020,0.833288,-0.228808,0.751875
28.560,625460,10.137050,6.026206,11.214440,0.876389,-0.218698,0.817325
28.580,625480,10.156203,5.999869,11.152191,0.873197,-0.193157,0.874793
28.600,625500,10.115502,6.074090,11.331757,0.871600,-0.175065,0.984940
28.620,625520,10.240001,6.586449,11.722012,0.918958,-0.186772,1.112647
28.640,625540,10.623073,7.388506,12.351686,0.928004,-0.106955,1.207896
28.660,625560,11.700463,7.943961,12.433089,0.946628,-0.028202,1.256318
28.680,625580,11.781867,7.474698,12.018892,0.907784,0.129303,1.381896
28.700,625600,12.097901,7.132327,11.887212,1.020592,0.084606,1.500557
28.720,625620,11.484985,6.703765,11.801021,1.031234,0.121854,1.635714
28.740,625640,10.606314,7.472303,12.483368,1.104134,0.112276,1.664980
28.760,625660,12.162544,7.821857,12.899959,1.148831,0.210717,1.548448
28.780,625680,10.623073,7.417237,11.736377,1.058904,0.436332,1.553769
28.800,625700,12.576741,8.700529,12.806585,1.278134,0.203267,1.393071
28.820,625720,11.939884,7.970297,11.686098,1.082317,0.416644,1.289841
28.840,625740,11.573571,7.556100,10.982203,1.154152,0.191028,1.194593
28.860,625760,11.228806,7.326257,10.436325,1.125418,0.061725,1.143510
28.880,625780,11.255142,7.833828,10.060435,1.180758,-0.069707,1.083913
28.900,625800,11.353305,8.166622,10.127473,1.183950,0.004789,1.017399
28.920,625820,10.398018,7.970297,9.964667,1.126482,0.193157,0.982812
28.940,625840,10.354922,7.948750,10.307038,1.090831,0.333635,0.887032
28.960,625860,10.469844,7.407660,10.302250,0.999307,0.490608,0.793380
28.980,625880,10.481815,6.979098,10.266336,0.842866,0.656095,0.805618
29.000,625900,10.450690,6.675035,10.400413,0.725802,0.748150,0.880114
29.020,625920,10.374076,6.569689,10.311827,0.678976,0.747086,0.957803
29.040,625940,10.417171,6.402095,10.366894,0.664609,0.743893,1.032830
29.060,625960,10.247183,6.189012,10.488997,0.654498,0.729526,1.100409
29.080,625980,10.192117,6.110003,10.584765,0.653434,0.662480,1.129675
29.100,626000,10.216059,6.002264,10.572795,0.707178,0.549140,1.136593
29.120,626020,10.129868,5.975927,10.539276,0.708242,0.483690,1.153620
29.140,626040,10.026917,6.038177,10.560823,0.752939,0.382589,1.154684
29.160,626060,9.959879,6.179435,10.675745,0.765710,0.297451,1.140317
29.180,626080,10.292673,6.517017,10.828975,0.794444,0.181983,1.097748
29.200,626100,10.558430,6.744466,10.924743,0.805618,0.023413,1.042941
29.220,626120,10.903194,7.529764,11.226412,0.799765,-0.114936,0.979619
29.240,626140,11.595119,7.740454,11.394006,0.773160,-0.187836,0.938647
29.260,626160,11.693281,7.905654,11.231200,0.743361,-0.225084,0.990261
29.280,626180,12.291832,7.656657,11.101913,0.744958,-0.260735,1.086042
29.300,626200,10.910378,6.780379,10.326192,0.634810,-0.170808,1.296758
29.320,626220,9.854534,7.187394,11.118672,0.748682,-0.313414,1.379768
29.340,626240,11.671733,7.649475,12.028469,0.821582,-0.408662,1.249932
29.360,626260,10.261548,6.667852,11.228806,0.677911,-0.184643,1.262171
29.380,626280,11.142614,8.695741,12.808979,0.825839,-0.366093,1.170116
29.400,626300,12.275072,9.440337,13.462596,0.747086,-0.076624,0.986537
29.420,626320,11.851298,8.348581,12.679692,0.668333,0.216570,0.972702
29.440,626340,12.581530,7.153875,12.315774,0.822646,0.161762,1.089767
29.460,626360,13.055582,6.335058,11.994950,0.845527,0.084074,1.255254
29.480,626380,13.261483,6.320693,12.521675,0.926940,-0.171872,1.372318
29.500,626400,12.761095,6.260838,12.820951,0.923215,-0.330442,1.371254
29.520,626420,11.429919,6.083666,12.555194,0.801362,-0.238919,1.278134
29.540,626440,11.085154,5.911284,12.277467,0.796040,-0.174533,1.103069
29.560,626460,10.754754,5.652710,11.777079,0.747618,-0.044165,0.957271
29.580,626480,10.548853,5.473145,11.487380,0.795508,-0.047358,0.821582
29.600,626500,10.383653,5.118803,11.377247,0.808811,-0.034055,0.714627
29.620,626520,10.268731,4.960786,11.293449,0.754536,0.012771,0.636939
29.640,626540,10.220847,4.891354,11.070788,0.839142,-0.107487,0.613526
29.660,626560,10.093954,5.102044,10.943896,0.799765,-0.081945,0.630553
29.680,626580,10.388441,5.516241,11.020511,0.892353,-0.152716,0.645985
29.700,626600,10.625467,5.784391,11.008539,0.899802,-0.148992,0.691746
29.720,626620,10.694899,6.016629,11.025299,0.925876,-0.181450,0.757728
29.740,626640,10.817003,6.155493,11.156980,1.002500,-0.258607,0.826903
29.760,626660,10.726024,6.145916,11.204864,0.988665,-0.250625,0.909380
29.780,626680,10.381259,6.112397,11.271901,0.993454,-0.252753,1.008353
29.800,626700,10.163386,6.402095,11.631032,0.984408,-0.226680,1.094023
29.820,626720,10.726024,7.156269,12.069171,0.984940,-0.183047,1.154152
29.840,626740,11.329363,7.103596,11.939884,0.941839,-0.038844,1.243015
29.860,626760,11.556811,7.189788,11.717223,0.926408,0.004257,1.369658
29.880,626780,12.148179,7.733272,11.930307,0.966316,-0.018092,1.468631
29.900,626800,13.184869,9.241618,12.457031,0.993986,-0.055872,1.492576
29.920,626820,13.606248,8.851364,12.052411,1.054115,0.047890,1.488319
29.940,626840,12.243947,8.815451,11.563994,0.970573,0.192625,1.528759
29.960,626860,12.231977,8.868123,11.417948,0.993986,0.192625,1.419676
29.980,626880,10.802638,8.549694,10.441113,0.929601,0.249561,1.265896
30.000,626900,9.983821,8.073248,10.153810,1.061032,0.112808,1.078592
30.020,626920,9.583989,8.331821,10.149021,1.114776,0.059597,0.905123
30.040,626940,10.761936,8.889671,10.424355,1.132336,0.109083,0.755068
30.060,626960,10.503363,8.307879,10.031705,1.017399,0.345341,0.784866
30.080,626980,10.002975,7.855376,10.256760,0.918426,0.477305,0.859362
30.100,627000,10.134656,7.618350,10.395624,0.866811,0.519874,0.885967
30.120,627020,10.046070,7.252037,10.251971,0.775288,0.553929,0.911509
30.140,627040,9.825804,6.993463,10.302250,0.691214,0.595966,0.934922
30.160,627060,9.622296,6.677429,10.431537,0.719948,0.532645,0.974830
30.180,627080,9.658210,6.459556,10.295067,0.741233,0.458681,1.025913
30.200,627100,9.684546,6.404490,10.271125,0.726334,0.454956,1.118501
30.220,627120,9.775525,6.385336,10.156203,0.709838,0.458681,1.194061
30.240,627140,9.933543,6.291962,10.091560,0.746022,0.393231,1.240355
30.260,627160,9.995792,6.200983,10.024523,0.779013,0.307561,1.260043
30.280,627180,9.947908,6.203377,10.053253,0.782738,0.245304,1.259511
30.300,627200,9.892841,6.301539,10.091560,0.778481,0.181983,1.243015
30.320,627220,9.842564,6.428432,10.146626,0.762517,0.135689,1.229180
30.340,627240,9.959879,6.615179,10.249578,0.752407,0.085670,1.206299
30.360,627260,10.433931,7.302315,10.582372,0.788059,-0.024477,1.156281
30.380,627280,12.023681,8.214506,11.195287,0.839142,-0.167083,1.055179
30.400,627300,12.768278,8.042124,10.994174,0.766242,-0.130368,1.088170
30.420,627320,13.146562,7.821857,10.745177,0.742829,-0.181983,1.218538
30.440,627340,11.911154,6.845023,10.223241,0.706113,-0.169212,1.424465
30.460,627360,10.055647,6.643910,10.532093,0.723141,-0.236258,1.558558
30.480,627380,11.535264,7.943961,12.021287,0.883307,-0.454424,1.372318
30.500,627400,12.399570,7.089231,11.710040,0.768371,-0.281488,1.202574
30.520,627420,11.827356,7.970297,11.868058,0.673122,-0.290001,1.146703
30.540,627440,13.026852,8.346188,12.976573,0.731123,-0.291066,0.995583
30.560,627460,12.330139,7.747637,12.370840,0.523067,-0.086734,0.975362
30.580,627480,12.227188,6.952762,12.346898,0.627361,-0.132496,1.007821
30.600,627500,11.729194,6.150704,12.263102,0.584792,-0.063854,1.128611
30.620,627520,12.090718,6.078878,12.725182,0.644388,-0.184643,1.158941
30.640,627540,11.975797,6.119579,12.749125,0.541691,-0.107487,1.092959
30.660,627560,11.233594,6.126762,12.442666,0.515085,-0.054275,0.956738
30.680,627580,10.867282,6.030994,12.356475,0.531580,0.022349,0.786995
30.700,627600,10.675745,5.987898,11.994950,0.567764,0.086202,0.663544
30.720,627620,10.931925,5.877765,11.863270,0.591177,0.118661,0.607673
30.740,627640,10.872070,5.564125,11.621455,0.657691,0.059064,0.617251
30.760,627660,10.730812,5.348647,11.473015,0.679508,-0.014367,0.669930
30.780,627680,10.527305,5.262455,11.360487,0.714627,-0.088863,0.738040
30.800,627700,10.211270,5.374983,11.209652,0.723673,-0.108551,0.810940
30.820,627720,10.170568,5.683835,11.247959,0.789123,-0.145267,0.846591
30.840,627740,10.297462,5.872977,11.322180,0.830096,-0.121322,0.868940
30.860,627760,10.216059,5.925649,11.401189,0.847655,-0.059597,0.900334
30.880,627780,10.295067,5.959168,11.513716,0.881178,-0.040441,0.939179
30.900,627800,10.340557,5.875371,11.607090,0.892353,-0.015963,0.988133
30.920,627820,9.945514,5.753267,11.712435,0.903527,-0.003725,1.058372
30.940,627840,9.799467,6.181829,12.253524,0.926408,-0.026606,1.097748
30.960,627860,10.534488,6.981492,12.780249,0.906720,0.015431,1.079656
30.980,627880,11.027693,6.998251,12.591106,0.871068,0.121854,1.096684
31.000,627900,11.717223,7.326257,12.495338,0.851912,0.052147,1.145638
31.020,627920,12.636597,7.443573,12.423512,0.954078,-0.135157,1.222263
31.040,627940,11.336545,7.979874,12.715605,0.909913,-0.162826,1.327621
31.060,627960,12.478580,8.583213,13.488933,0.997179,-0.312350,1.334006
31.080,627980,11.283873,8.353370,12.682086,0.843398,-0.035652,1.378704
31.100,628000,12.854469,8.834604,12.785037,0.918958,-0.132496,1.295694
31.120,628020,11.949461,7.738060,11.269507,0.752939,0.053743,1.311126
31.140,628040,11.573571,7.484274,10.840945,0.836481,-0.128771,1.323364
31.160,628060,11.159374,7.766790,10.692505,0.899802,-0.189964,1.315382
31.180,628080,10.915166,8.267179,10.613496,0.955674,-0.105358,1.241951
31.200,628100,10.024523,7.963115,10.654198,0.976427,0.141010,1.139253
31.220,628120,9.545682,7.848193,10.817003,0.956206,0.358112,1.000904
31.240,628140,10.596737,7.663840,11.022904,0.955674,0.458681,0.831692
31.260,628160,11.154586,7.199365,10.706870,0.880646,0.516149,0.800829
31.280,628180,11.066000,6.766014,10.749966,0.781141,0.562975,0.898206
31.300,628200,10.433931,6.356606,10.879252,0.755600,0.534773,1.018996
31.320,628220,9.902418,6.138733,10.996569,0.726866,0.547544,1.116372
31.340,628240,9.595961,5.868188,11.116279,0.715159,0.612994,1.174373
31.360,628260,9.698911,5.676652,11.030087,0.707178,0.622040,1.202042
31.380,628280,9.931149,5.647922,11.154586,0.743361,0.572553,1.212685
31.400,628300,10.129868,5.588067,11.006145,0.748150,0.527324,1.214813
31.420,628320,10.077195,5.592855,10.989386,0.782206,0.440589,1.223859
31.440,628340,10.019734,5.772420,11.101913,0.832756,0.327781,1.213749
31.460,628360,9.861717,5.951985,11.188105,0.861490,0.256478,1.187143
31.480,628380,9.888053,6.356606,11.480197,0.889160,0.150056,1.124354
31.500,628400,10.304645,6.945579,11.832145,0.918958,0.034587,1.018996
31.520,628420,11.154586,7.491457,11.894394,0.937582,-0.069707,0.917362
31.540,628440,11.449073,7.805098,11.810597,0.918426,-0.105890,0.904591
31.560,628460,12.409147,7.915231,11.834539,0.943436,-0.209120,0.926408
31.580,628480,12.215217,6.916849,11.008539,0.843398,-0.151120,1.087106
31.600,628500,10.673351,6.325481,10.718841,0.826371,-0.268717,1.288244
31.620,628520,10.120291,6.579266,11.525687,0.886500,-0.465066,1.298887
31.640,628540,10.412383,7.316680,12.224793,0.848187,-0.543287,1.171712
31.660,628560,12.521675,8.090008,12.591106,0.860958,-0.643856,1.006225
31.680,628580,11.089942,7.184999,11.892000,0.632150,-0.358644,1.052519
31.700,628600,11.911154,8.643068,12.895170,0.744425,-0.564571,1.017399
31.720,628620,12.382812,8.147469,12.864046,0.627361,-0.307029,0.979087
31.740,628640,12.162544,6.761226,11.906365,0.601819,-0.178258,1.087638
31.760,628660,12.366052,5.920861,11.994950,0.744958,-0.301176,1.256850
31.780,628680,12.823344,6.138733,12.497733,0.791251,-0.393763,1.326025
31.800,628700,12.516887,6.461950,13.026852,0.725802,-0.306497,1.263767
31.820,628720,10.994174,6.418855,12.981361,0.673122,-0.144735,1.125950
31.840,628740,10.627861,6.440403,13.074736,0.672590,-0.012771,0.896610
31.860,628760,10.639832,6.399701,12.430696,0.653966,0.129303,0.717288
31.880,628780,11.221623,6.488286,12.023681,0.688554,0.134624,0.612994
31.900,628800,11.702858,6.325481,11.561600,0.701857,0.103762,0.565104
31.920,628820,11.638214,5.784391,11.247959,0.849784,-0.126643,0.588517
31.940,628840,11.063606,5.485116,11.010934,0.872665,-0.290533,0.659288
31.960,628860,10.414778,5.355829,10.745177,0.896610,-0.408662,0.711967
31.980,628880,9.952697,5.432444,10.632649,0.876922,-0.425690,0.738040
32.000,628900,9.773131,5.556942,10.625467,0.877454,-0.392699,0.751343
32.020,628920,9.830592,5.592855,10.618284,0.904591,-0.361837,0.782206
32.040,628940,9.962274,5.714960,10.548853,0.886500,-0.296919,0.851380
32.060,628960,10.208876,5.760449,10.587160,0.910445,-0.253818,0.921619
32.080,628980,10.366894,5.863400,10.757148,0.929069,-0.212313,1.000904
32.100,629000,10.809821,6.521805,11.135432,0.949821,-0.208056,1.062097
32.120,629020,11.695675,7.331046,11.585542,0.934922,-0.121854,1.106262
32.140,629040,11.530476,7.129933,11.597513,0.959399,-0.006385,1.172244
32.160,629060,11.717223,7.165846,11.765107,0.998243,0.021285,1.250997
32.180,629080,11.997345,7.062895,11.812991,0.971638,0.076092,1.346777
32.200,629100,11.214440,7.295133,11.908759,0.957803,0.120257,1.437768
32.220,629120,11.863270,8.638280,12.880805,1.029106,0.104826,1.410098
32.240,629140,11.877635,8.262390,12.485762,0.947693,0.354919,1.386153
32.260,629160,12.351686,9.047688,12.648567,0.999840,0.328313,1.402649
32.280,629180,13.639767,8.805874,12.567164,1.041344,0.246368,1.372318
32.300,629200,12.526464,7.912837,11.264719,0.950885,0.187304,1.399456
32.320,629220,12.088325,7.374141,10.860099,1.023785,-0.068643,1.400520
32.340,629240,11.252748,6.947973,10.031705,1.014739,-0.150056,1.412227
32.360,629260,11.013328,7.546524,9.823410,1.094023,-0.229873,1.357951
32.380,629280,10.929531,7.845799,10.014946,1.094556,-0.100037,1.202042
32.400,629300,10.115502,7.410054,9.811439,1.050922,0.091523,1.054647
32.420,629320,10.498574,7.264008,9.907207,1.009950,0.205928,0.896078
32.440,629340,10.831368,6.854599,9.931149,0.881178,0.376204,0.796573
32.460,629360,10.714052,6.308722,9.897630,0.733783,0.491140,0.806151
32.480,629380,10.311827,6.160281,9.804255,0.631086,0.533709,0.864683
32.500,629400,9.981427,6.282385,9.981427,0.602884,0.557654,0.914702
32.520,629420,9.809045,6.186617,10.170568,0.616186,0.580003,0.951949
32.540,629440,9.797073,6.040571,10.235212,0.616186,0.589581,0.993986
32.560,629460,10.062830,6.162675,10.357317,0.623104,0.558186,1.036555
32.580,629480,10.429143,6.229713,10.479421,0.657159,0.481562,1.075932
32.600,629500,10.477027,6.179435,10.649409,0.657691,0.411855,1.138189
32.620,629520,10.405201,6.277597,10.817003,0.644920,0.336295,1.187675
32.640,629540,10.220847,6.229713,10.943896,0.614058,0.269249,1.212152
32.660,629560,9.983821,6.224925,11.006145,0.589049,0.188900,1.211088
32.680,629580,10.228029,6.830657,11.441890,0.624700,0.039376,1.125950
32.700,629600,11.379641,7.386112,11.623849,0.695471,-0.123450,0.989197
32.720,629620,11.647791,7.127539,11.324574,0.678444,-0.184111,0.966849
32.740,629640,12.038046,7.170634,11.516110,0.728994,-0.318735,0.990794
32.760,629660,11.619061,6.428432,11.149797,0.657159,-0.314479,1.087106
32.780,629680,10.101137,6.263232,11.202470,0.622572,-0.365561,1.207896
32.800,629700,10.441113,7.553706,12.445061,0.703985,-0.492204,1.141381
32.820,629720,12.658144,7.738060,12.531252,0.754004,-0.496461,0.991858
32.840,629740,11.887212,7.912837,11.925519,0.632150,-0.395360,1.016867
32.860,629760,13.347674,8.686164,13.048399,0.799233,-0.552865,0.926940
32.880,629780,12.287044,7.350199,12.433089,0.625764,-0.270313,0.984408
32.900,629800,11.171345,6.121974,12.050017,0.674187,-0.218698,1.190336
32.920,629820,11.892000,6.404490,12.785037,0.807747,-0.381525,1.355823
32.940,629840,13.749901,7.158663,13.189657,0.794976,-0.410259,1.331878
32.960,629860,13.022063,6.643910,12.715605,0.627893,-0.219763,1.291437
32.980,629880,11.805809,6.607996,12.959814,0.681636,-0.245836,1.204703
33.000,629900,12.212823,6.636727,13.050794,0.662480,-0.109615,1.029638
33.020,629920,11.714828,5.858612,11.937490,0.606076,0.112808,0.924812
33.040,629940,11.461043,5.372589,11.590330,0.684297,0.068110,0.865215
33.060,629960,11.384429,5.054160,11.525687,0.648113,0.043101,0.801362
33.080,629980,10.896012,4.766856,11.101913,0.772627,-0.206992,0.755068
33.100,630000,10.611102,4.716578,10.884041,0.819986,-0.309157,0.774756
33.120,630020,10.611102,4.850653,10.773908,0.859362,-0.369286,0.806151
33.140,630040,10.632649,4.989516,10.644621,0.859362,-0.345873,0.852976
33.160,630060,10.644621,4.924873,10.584765,0.858298,-0.321928,0.894481
33.180,630080,10.378864,4.778827,10.675745,0.903527,-0.311818,0.953014
33.200,630100,10.187328,4.888960,10.678140,0.920023,-0.302240,0.989197
33.220,630120,10.177752,5.238513,10.654198,0.910977,-0.216570,1.012078
33.240,630140,10.579977,5.920861,10.975020,0.913637,-0.104294,1.032830
33.260,630160,11.360487,6.766014,11.480197,0.967913,-0.025009,1.053583
33.280,630180,12.033257,6.912060,11.717223,0.943436,0.157505,1.115840
33.300,630200,12.224793,6.773197,11.439496,0.885435,0.295322,1.226519
33.320,630220,12.667721,6.821081,11.542446,0.925344,0.220827,1.311658
33.340,630240,11.827356,7.383718,12.095507,0.946628,0.180918,1.375511
33.360,630260,13.295002,8.303091,12.952631,1.093491,0.027138,1.362208
33.380,630280,12.811374,8.243237,12.220005,0.965784,0.272974,1.404777
33.400,630300,14.006080,8.887277,12.579136,1.031766,0.178258,1.345713
33.420,630320,13.323732,8.219295,11.626244,0.812004,0.361837,1.307401
33.440,630340,12.500127,7.728483,11.097125,0.807215,0.271377,1.236098
33.460,630360,11.480197,6.868965,10.635044,0.763049,0.253818,1.147767
33.480,630380,10.390836,6.418855,10.165780,0.801362,0.180918,1.120629
33.500,630400,10.850522,7.223307,10.465055,0.866279,0.196350,1.084445
33.520,630420,11.360487,7.606379,10.431537,0.866279,0.403873,1.022188
33.540,630440,10.663774,7.321469,10.153810,0.885435,0.571489,0.955674
33.560,630460,10.680533,7.105990,10.558430,0.933326,0.605012,0.834885
33.580,630480,10.860099,6.737284,10.706870,0.936518,0.636407,0.743361
33.600,630500,10.726024,6.421249,10.675745,0.810940,0.727398,0.755068
33.620,630520,10.438720,6.258443,10.637438,0.772095,0.718884,0.808811
33.640,630540,10.359711,6.162675,10.651803,0.802426,0.637471,0.865215
33.660,630560,10.134656,5.853823,10.572795,0.818921,0.575746,0.942371
33.680,630580,9.823410,5.846641,10.663774,0.808811,0.525195,1.016867
33.700,630600,9.835381,5.999869,10.891224,0.807215,0.485819,1.080721
33.720,630620,9.971850,6.212954,10.972627,0.788591,0.451764,1.121161
33.740,630640,10.129868,6.445191,11.099519,0.791251,0.404406,1.137657
33.760,630660,10.421960,6.629545,11.159374,0.780077,0.341084,1.135528
33.780,630680,10.453085,6.603208,11.054029,0.764114,0.262864,1.136593
33.800,630700,10.225636,6.586449,11.006145,0.783802,0.133560,1.149895
33.820,630720,10.041282,6.801927,11.092337,0.798701,0.018624,1.136593
33.840,630740,10.723629,7.603985,11.729194,0.867876,-0.128239,1.022188
33.860,630760,11.954249,7.788338,11.870452,0.866279,-0.178258,0.935454
33.880,630780,12.143391,7.378930,11.353305,0.799765,-0.193689,1.006757
33.900,630800,11.853693,6.639122,10.879252,0.806151,-0.250093,1.162134
33.920,630820,9.993398,6.165070,11.245565,0.798701,-0.292662,1.332410
33.940,630840,10.869676,7.220912,12.607866,0.901399,-0.523599,1.202574
33.960,630860,11.461043,7.060501,12.715605,0.774756,-0.370350,1.044005
33.980,630880,12.136209,8.698134,13.584701,0.742829,-0.477837,0.865215
34.000,630900,13.711593,8.839393,14.058752,0.693875,-0.403341,0.639599
34.020,630920,12.411542,7.876924,13.151350,0.495397,-0.230405,0.650774
34.040,630940,12.035652,7.359776,13.105860,0.628425,-0.412387,0.786995
34.060,630960,12.009315,6.770802,12.715605,0.574149,-0.420901,0.990261
34.080,630980,12.299014,6.603208,12.540829,0.626829,-0.525195,1.056776
34.100,631000,11.408371,6.330269,12.442666,0.567764,-0.443250,1.056244
34.120,631020,9.964667,6.131551,12.346898,0.560315,-0.355451,1.001968
34.140,631040,9.976639,6.186617,12.392388,0.551801,-0.236790,0.832224
34.160,631060,10.400413,5.868188,11.789049,0.514553,-0.079285,0.711967
34.180,631080,10.409989,5.597643,11.396400,0.520938,-0.054275,0.683765
34.200,631100,10.749966,5.477933,11.401189,0.522002,-0.099505,0.665673
34.220,631120,10.579977,5.260061,11.355699,0.522535,-0.184111,0.678976
34.240,631140,10.163386,5.284003,11.415554,0.572021,-0.314479,0.710902
34.260,631160,9.967062,5.564125,11.669339,0.560315,-0.316075,0.716224
34.280,631180,10.062830,5.861006,11.717223,0.558186,-0.249561,0.715691
