Time(s),Time(ms),AccelX,AccelY,AccelZ,GyroX,GyroY,GyroZ
0.000,47420,4.994305,4.218584,6.670246,-0.405689,-0.139493,0.206775
0.020,47440,5.305551,4.467580,6.239290,-0.296706,0.011191,-0.037971
0.040,47460,5.750873,4.400543,5.861006,-0.272058,0.013590,-0.231956
0.060,47480,6.220136,4.103662,5.430049,-0.182527,-0.124305,-0.333611
0.080,47500,6.550536,4.510676,5.712565,-0.113113,-0.208107,-0.298172
0.100,47520,6.856994,4.501099,6.272809,-0.283116,0.064484,-0.180262
0.120,47540,6.837840,4.735731,5.951985,-0.148020,-0.233954,-0.047297
0.140,47560,7.354988,5.099649,6.215348,-0.183726,-0.430337,-0.025047
0.160,47580,7.790732,5.027823,6.306327,-0.350665,-0.178530,-0.074743
0.180,47600,7.972692,4.831499,6.234501,-0.338807,-0.269527,0.014789
0.200,47620,7.867347,4.812346,6.253655,-0.286980,-0.330813,0.158412
0.220,47640,7.694964,4.869806,6.368577,-0.267129,-0.238750,0.247677
0.240,47660,7.331046,4.884171,6.545747,-0.245145,-0.068214,0.217966
0.260,47680,7.388506,5.023035,6.521805,-0.243946,-0.049695,0.167871
0.280,47700,9.016563,5.731719,7.900866,-0.271259,-0.235286,0.093928
0.300,47720,8.681376,5.262455,7.967903,-0.304966,-0.087933,-0.089798
0.320,47740,8.968679,5.099649,7.613562,-0.328415,-0.246211,-0.133098
0.340,47760,8.116343,4.994305,7.551312,-0.297505,-0.212237,-0.215035
0.360,47780,7.479486,4.462792,7.201759,-0.343737,-0.142158,-0.251674
0.380,47800,6.981492,3.979163,7.077260,-0.384772,-0.081138,-0.203577
0.400,47820,6.823475,3.639187,7.024588,-0.394231,-0.130034,-0.087400
0.420,47840,6.995857,3.538630,6.809110,-0.402625,-0.125904,0.044366
0.440,47860,6.177041,3.936068,6.675035,-0.380508,-0.101522,0.085002
0.460,47880,5.755661,4.539406,7.024588,-0.243680,-0.117510,-0.024648
0.480,47900,6.373365,4.505888,7.268796,-0.101256,-0.125104,-0.224628
0.500,47920,6.636727,4.146757,7.273585,-0.043433,-0.024381,-0.385971
0.520,47940,6.718130,3.921702,7.129933,-0.077274,0.023582,-0.467109
0.540,47960,6.794744,3.792415,7.005434,-0.122573,-0.002931,-0.486427
0.560,47980,6.607996,3.907337,6.909666,-0.177331,-0.051694,-0.464977
0.580,48000,6.382942,4.098873,6.813898,-0.251940,-0.069280,-0.430603
0.600,48020,6.296751,4.290410,6.617573,-0.275256,-0.065283,-0.362922
0.620,48040,6.335058,4.290410,6.531382,-0.242881,-0.098325,-0.265930
0.640,48060,6.483498,4.170700,6.426037,-0.189188,-0.109250,-0.154948
0.660,48080,6.339846,3.988740,6.277597,-0.134430,-0.106985,-0.047031
0.680,48100,6.172252,3.830723,6.205771,-0.081271,-0.168404,0.024914
0.700,48120,5.913678,3.849876,6.483498,-0.049828,-0.226493,0.078606
0.720,48140,5.578490,4.156334,6.976704,-0.047564,-0.185991,0.100057
0.740,48160,5.923255,4.127604,7.158663,-0.044766,-0.085668,0.097925
0.760,48180,6.244078,4.204218,7.086837,-0.044233,-0.016254,0.137761
0.780,48200,6.833052,4.434062,7.173028,-0.020384,-0.034507,0.198781
0.800,48220,7.364564,4.563348,7.230489,0.034773,-0.059155,0.248609
0.820,48240,7.589619,4.663905,7.321469,0.102322,-0.088466,0.264064
0.840,48260,7.580042,4.539406,7.311892,0.140692,-0.102588,0.245412
0.860,48280,7.680599,4.357447,7.034164,0.124438,-0.113779,0.252606
0.880,48300,7.690176,4.252102,6.995857,0.099124,-0.146954,0.303634
0.900,48320,8.489840,5.090073,7.943961,0.051827,-0.179995,0.346934
0.920,48340,7.910442,4.812346,7.302315,0.061953,0.151351,0.312560
0.940,48360,8.777143,5.066131,6.847417,0.058622,0.174400,0.377977
0.960,48380,8.269572,4.769250,6.258443,0.138694,0.270193,0.343603
0.980,48400,8.063671,4.774038,5.980716,0.141225,0.141092,0.299637
1.000,48420,7.905654,4.563348,5.774815,0.175998,0.000799,0.192919
1.020,48440,7.589619,4.630386,5.961562,0.114712,-0.053159,0.058355
1.040,48460,7.101202,4.683059,6.057330,0.015988,0.091530,-0.089665
1.060,48480,6.813898,4.908113,5.980716,-0.015455,0.194784,-0.129900
1.080,48500,6.995857,5.276821,6.311116,0.016121,0.209972,-0.143757
1.100,48520,7.149086,5.228937,6.368577,0.011458,0.312294,-0.199314
1.120,48540,7.225701,4.850653,6.062119,0.008527,0.395031,-0.209440
1.140,48560,7.331046,4.539406,5.779603,0.067948,0.350398,-0.133897
1.160,48580,7.182605,4.362236,5.693412,0.103254,0.262732,-0.060620
1.180,48600,7.115568,4.204218,5.726931,0.115778,0.149485,-0.020518
1.200,48620,6.670246,3.945644,5.765238,0.095793,0.099124,-0.047830
1.220,48640,6.339846,3.663129,5.525817,0.059021,0.059021,-0.075409
1.240,48660,6.382942,3.725378,5.568913,-0.003730,0.046231,-0.071012
1.260,48680,6.181829,3.969586,5.530606,-0.071812,0.111115,-0.123905
1.280,48700,6.181829,4.438850,5.664681,-0.146021,0.185991,-0.232355
1.300,48720,6.421249,4.625597,5.817910,-0.121640,0.165873,-0.368518
1.320,48740,6.593631,4.510676,5.702989,-0.103121,0.128035,-0.425141
1.340,48760,7.235278,4.821922,5.942409,-0.125504,0.038504,-0.388502
1.360,48780,7.800309,4.960786,6.157887,-0.149752,-0.007061,-0.336142
1.380,48800,7.948750,5.013458,6.148310,-0.207574,0.000133,-0.254605
1.400,48820,7.891289,4.946421,6.076484,-0.239816,-0.067815,-0.170802
1.420,48840,7.603985,4.726154,6.057330,-0.247277,-0.192919,-0.088066
1.440,48860,7.220912,4.553771,5.951985,-0.288979,-0.247544,0.011591
1.460,48880,7.240066,4.520253,5.813122,-0.328149,-0.226093,0.099923
1.480,48900,7.134721,4.855441,5.980716,-0.272858,-0.294841,0.147487
1.500,48920,7.182605,4.903325,6.244078,-0.238351,-0.309096,0.116044
1.520,48940,8.111555,5.683835,7.532158,-0.214502,-0.357060,0.081404
1.540,48960,8.236053,5.837064,7.833828,-0.146288,-0.187190,-0.050761
1.560,48980,9.265560,5.999869,8.020576,-0.160011,-0.120708,-0.119908
1.580,49000,9.385271,5.760449,7.800309,-0.154948,-0.055957,-0.168138
1.600,49020,8.485051,5.204995,7.398083,-0.194651,-0.101655,-0.157613
1.620,49040,7.297527,4.817134,7.144298,-0.242881,-0.147221,-0.087533
1.640,49060,6.761226,4.414908,6.804321,-0.307498,-0.144956,0.001732
1.660,49080,6.995857,3.926491,6.344635,-0.335876,-0.227426,0.096593
1.680,49100,6.512228,3.988740,6.291962,-0.311894,-0.293908,0.171735
1.700,49120,5.870583,4.438850,6.488286,-0.255538,-0.233954,0.109383
1.720,49140,6.253655,4.764462,6.900089,-0.148819,-0.240882,-0.061686
1.740,49160,6.545747,4.649539,7.058106,-0.099790,-0.103521,-0.247810
1.760,49180,6.742072,4.328717,6.746861,-0.111115,0.010392,-0.350665
1.780,49200,6.962338,4.132392,6.598420,-0.149885,-0.020518,-0.374247
1.800,49220,6.694188,4.185065,6.483498,-0.224361,-0.031576,-0.363988
1.820,49240,6.531382,4.165911,6.387730,-0.263665,-0.093395,-0.306432
1.840,49260,6.564901,4.209007,6.258443,-0.279652,-0.123772,-0.200779
1.860,49280,6.742072,4.151546,6.014235,-0.266196,-0.150152,-0.091930
1.880,49300,6.847417,3.940856,5.956774,-0.233021,-0.211704,0.004930
1.900,49320,6.689400,3.720589,6.023811,-0.192253,-0.228358,0.089931
1.920,49340,6.660669,3.514688,5.870583,-0.171735,-0.219032,0.170536
1.940,49360,6.617573,3.600879,5.951985,-0.166939,-0.289911,0.237685
1.960,49380,6.421249,3.734955,6.244078,-0.147221,-0.320021,0.268461
1.980,49400,6.727707,3.830723,6.521805,-0.127103,-0.265796,0.292309
2.000,49420,7.489063,3.859453,6.569689,-0.085268,-0.183459,0.341738
2.020,49440,7.685388,3.988740,6.555324,-0.043833,-0.181061,0.399827
2.040,49460,7.661446,4.213795,6.684611,-0.002265,-0.212904,0.432069
2.060,49480,7.790732,4.175488,7.024588,0.026513,-0.223029,0.449789
2.080,49500,7.939173,4.017470,6.952762,0.040502,-0.146954,0.486427
2.100,49520,8.006210,3.964798,6.794744,0.089132,-0.114446,0.574360
2.120,49540,7.584831,4.137180,6.713342,0.133098,-0.107651,0.626720
2.140,49560,8.044518,4.683059,7.417237,0.197049,-0.143623,0.645239
2.160,49580,9.217676,4.285621,7.508216,0.237818,-0.013456,0.529727
2.180,49600,9.337387,4.175488,6.708553,0.249276,0.127502,0.537188
2.200,49620,9.773131,4.132392,6.675035,0.238351,0.081404,0.529994
2.220,49640,9.160215,4.505888,6.397307,0.237418,0.150285,0.418746
2.240,49660,9.064447,4.410120,5.894525,0.236352,0.077141,0.271126
2.260,49680,8.829816,4.161122,5.391742,0.224628,-0.003597,0.109783
2.280,49700,8.623915,4.012682,5.219360,0.182394,-0.160677,-0.023982
2.300,49720,7.752425,3.993528,5.185841,0.107118,-0.148686,-0.125770
2.320,49740,6.746861,3.936068,5.363012,0.051427,-0.012657,-0.148819
2.340,49760,6.928820,4.252102,5.947197,0.021450,0.127769,-0.126303
2.360,49780,7.441179,4.639963,5.995081,0.027046,0.356127,-0.147087
2.380,49800,7.757214,4.582502,5.497087,0.007061,0.496420,-0.131899
2.400,49820,7.503428,4.371812,5.415684,0.005862,0.518003,-0.096726
2.420,49840,7.599196,4.213795,5.477933,0.016920,0.425141,-0.041435
2.440,49860,7.790732,3.739743,5.425261,0.008260,0.325217,0.020518
2.460,49880,7.618350,3.399766,5.487510,-0.019985,0.204243,0.076741
2.480,49900,7.436390,3.174711,5.477933,-0.095660,0.090464,0.121773
2.500,49920,7.053318,3.055001,5.267244,-0.190387,0.031309,0.129900
2.520,49940,7.034164,3.165135,5.233725,-0.237685,-0.058489,0.113380
2.540,49960,6.928820,3.385401,5.252879,-0.297239,-0.130433,0.066349
2.560,49980,6.981492,3.691859,5.578490,-0.321620,-0.159478,-0.058888
2.580,50000,7.273585,3.658340,5.386954,-0.363455,-0.158812,-0.173600
2.600,50020,7.532158,3.648763,5.391742,-0.414349,-0.246611,-0.216368
2.620,50040,7.556100,4.017470,5.650316,-0.438864,-0.278054,-0.258335
2.640,50060,7.584831,4.194642,5.789180,-0.457116,-0.280985,-0.290977
2.660,50080,7.948750,4.232949,5.889736,-0.460580,-0.268328,-0.323485
2.680,50100,8.398860,3.921702,5.683835,-0.483363,-0.252073,-0.294708
2.700,50120,8.374918,3.907337,5.722142,-0.495221,-0.288579,-0.204910
2.720,50140,8.092402,4.046201,5.846641,-0.533991,-0.303767,-0.098858
2.740,50160,8.322245,4.189853,6.033388,-0.550112,-0.328948,-0.048763
2.760,50180,9.346964,4.429273,6.727707,-0.528129,-0.407821,-0.036772
2.780,50200,10.117896,4.548983,7.398083,-0.462579,-0.347334,-0.090730
2.800,50220,9.797073,4.616021,6.919243,-0.479632,-0.141891,-0.099390
2.820,50240,9.940725,4.381389,6.919243,-0.436199,-0.211305,-0.129900
2.840,50260,8.714894,4.074931,6.512228,-0.451920,-0.166273,-0.153749
2.860,50280,8.159439,3.907337,6.775591,-0.431003,-0.128035,-0.118043
2.880,50300,7.694964,3.466804,6.493075,-0.415415,-0.013190,-0.051560
2.900,50320,7.790732,3.093309,6.239290,-0.392766,0.010925,0.053825
2.920,50340,8.322245,2.978387,6.047753,-0.274590,-0.193319,0.173467
2.940,50360,8.054094,3.203442,6.248867,-0.209839,-0.273790,0.183060
2.960,50380,7.551312,3.313575,6.406884,-0.207441,-0.174133,0.067149
2.980,50400,7.929596,3.490746,6.703765,-0.169204,-0.082870,-0.116311
3.000,50420,7.814674,3.548207,6.569689,-0.124172,-0.010792,-0.295907
3.020,50440,7.565677,3.251326,6.244078,-0.158145,-0.033041,-0.425141
3.040,50460,7.699753,3.117251,6.143522,-0.218499,-0.010392,-0.470173
3.060,50480,7.594408,3.299210,6.172252,-0.261266,0.040636,-0.434600
3.080,50500,7.383718,3.265691,6.090849,-0.309096,0.052493,-0.384372
3.100,50520,7.422025,2.992752,5.817910,-0.352263,0.056757,-0.299637
3.120,50540,7.460332,2.810793,5.770026,-0.370116,0.000666,-0.197982
3.140,50560,7.551312,2.719813,5.607220,-0.395031,-0.055424,-0.117243
3.160,50580,7.220912,2.590526,5.621585,-0.365453,-0.108317,-0.048896
3.180,50600,7.043741,2.422932,5.612009,-0.370516,-0.190787,-0.008660
3.200,50620,6.789956,2.456451,5.880159,-0.353063,-0.221297,0.029977
3.220,50640,6.679823,2.638410,5.951985,-0.355861,-0.186524,0.043433
3.240,50660,7.000646,2.858677,6.550536,-0.317623,-0.098458,0.029044
3.260,50680,7.675811,2.849100,6.698977,-0.301103,0.043700,-0.026513
3.280,50700,8.197746,3.002329,6.607996,-0.280851,0.139493,0.005995
3.300,50720,8.609550,3.509900,6.957550,-0.222896,0.111648,0.052360
3.320,50740,8.638280,3.907337,7.259220,-0.127769,0.170936,0.013456
3.340,50760,8.710106,3.931279,7.187394,-0.008660,0.260201,-0.049962
3.360,50780,9.212888,3.778050,7.340622,0.109783,0.239949,-0.040103
3.380,50800,9.370906,3.519476,7.297527,0.120308,0.217167,-0.013590
3.400,50820,10.884041,3.634398,7.824251,0.057689,0.115911,0.114979
3.420,50840,11.793838,3.447650,7.474698,-0.031309,0.085135,0.310562
3.440,50860,11.032481,4.103662,6.694188,-0.082470,0.002398,0.538787
3.460,50880,10.548853,3.998317,6.646304,-0.004930,-0.302835,0.620724
3.480,50900,9.351752,3.514688,5.937620,0.057289,-0.381441,0.621257
3.500,50920,8.192958,3.232172,5.363012,0.102721,-0.530793,0.604070
3.520,50940,7.192182,2.964022,4.912902,0.070213,-0.540119,0.555308
3.540,50960,6.655881,2.892196,4.922479,0.051960,-0.456450,0.441262
3.560,50980,6.244078,2.791639,4.683059,0.095926,-0.270459,0.352663
3.580,51000,5.779603,3.213019,4.553771,0.170802,0.021051,0.262998
3.600,51020,5.688623,3.663129,4.812346,0.325351,0.355194,0.080472
3.620,51040,5.798757,4.127604,5.291186,0.502548,0.719848,-0.200380
3.640,51060,5.995081,4.328717,5.544971,0.655364,1.083436,-0.556507
3.660,51080,7.086837,3.983952,5.736507,0.712787,1.294475,-0.839357
3.680,51100,8.159439,3.438074,6.200983,0.674017,1.289812,-0.929021
3.700,51120,8.686164,3.538630,6.291962,0.514672,1.173634,-0.816308
3.720,51140,9.255983,3.921702,6.220136,0.401159,0.938614,-0.565433
3.740,51160,9.188946,3.921702,6.291962,0.333744,0.585418,-0.292176
3.760,51180,9.016563,3.687071,6.382942,0.218899,0.230490,-0.025181
3.780,51200,8.518570,3.778050,6.464345,0.069280,-0.067815,0.211704
3.800,51220,7.599196,4.103662,6.268020,-0.089265,-0.250208,0.350265
3.820,51240,6.775591,4.323928,6.181829,-0.170669,-0.386504,0.365587
3.840,51260,6.584054,4.386178,5.999869,-0.185458,-0.501482,0.298571
3.860,51280,6.555324,4.194642,5.702989,-0.200913,-0.534790,0.215435
3.880,51300,6.177041,4.400543,5.717354,-0.251008,-0.515338,0.123905
3.900,51320,6.196194,4.486734,5.813122,-0.274323,-0.487893,-0.015455
3.920,51340,6.052542,4.616021,5.894525,-0.263132,-0.401426,-0.148553
3.940,51360,6.086061,4.625597,5.851429,-0.264464,-0.266196,-0.301103
3.960,51380,6.263232,4.558560,5.827487,-0.272058,-0.110449,-0.422476
3.980,51400,6.684611,4.553771,5.789180,-0.316291,-0.038371,-0.520002
4.000,51420,7.412448,5.305551,6.732495,-0.368917,0.068214,-0.637378
4.020,51440,8.853758,5.683835,7.857770,-0.223296,0.067015,-0.888519
4.040,51460,7.699753,6.119579,7.991845,-0.114845,0.319355,-1.172302
4.060,51480,10.376471,4.932055,8.020576,-0.246478,0.483896,-1.366286
4.080,51500,11.880029,4.103662,7.441179,-0.293375,0.546248,-1.077841
4.100,51520,10.204087,4.616021,7.489063,-0.265930,0.186524,-0.635247
4.120,51540,9.792285,4.031836,7.259220,-0.334677,-0.063951,-0.257802
4.140,51560,9.615114,3.476381,6.885724,-0.385038,-0.291377,0.264730
4.160,51580,8.216900,3.926491,7.034164,-0.339740,-0.596476,0.599141
4.180,51600,7.072472,3.768473,6.890512,-0.341205,-0.707591,0.630717
4.200,51620,7.067683,3.715801,6.675035,-0.341338,-0.757553,0.543717
4.220,51640,7.766790,3.165135,6.464345,-0.358259,-0.638577,0.414349
4.240,51660,7.240066,3.117251,5.956774,-0.354262,-0.589149,0.321221
4.260,51680,6.722919,3.241749,6.100426,-0.301502,-0.657496,0.201446
4.280,51700,5.808333,3.342306,6.143522,-0.338407,-0.443260,-0.002665
4.300,51720,5.051765,3.509900,6.114791,-0.355594,-0.204510,-0.211305
4.320,51740,4.826711,3.754108,6.177041,-0.282051,0.045032,-0.364521
4.340,51760,4.922479,3.912126,6.234501,-0.186657,0.324152,-0.544383
4.360,51780,5.655105,3.821146,6.014235,-0.095793,0.546515,-0.675482
4.380,51800,6.416461,3.505111,6.081272,0.017720,0.659228,-0.777671
4.400,51820,7.642292,2.576161,5.995081,0.049962,0.637245,-0.751024
4.420,51840,8.370130,2.523489,6.253655,0.013856,0.569564,-0.494155
4.440,51860,7.321469,3.581726,6.746861,0.004397,0.478700,-0.280851
4.460,51880,7.015011,4.031836,7.077260,-0.006129,0.429138,-0.198914
4.480,51900,7.776367,3.749320,7.163452,0.010525,0.392632,-0.035972
4.500,51920,8.470686,3.696647,7.249643,0.035972,0.224495,0.226760
4.520,51940,8.633492,3.945644,7.422025,0.096459,0.046897,0.489492
4.540,51960,7.575254,4.496311,7.599196,0.144023,0.013190,0.652300
4.560,51980,7.010222,4.927267,7.718906,0.192119,-0.001599,0.653233
4.580,52000,7.129933,4.347870,7.383718,0.221830,-0.012124,0.555708
4.600,52020,7.326257,3.821146,7.173028,0.195983,-0.049828,0.529194
4.620,52040,7.417237,3.586514,7.000646,0.143890,-0.104587,0.586217
4.640,52060,7.953538,4.209007,7.383718,0.108317,-0.148553,0.671885
4.660,52080,8.710106,4.400543,7.431602,0.138028,-0.099524,0.667222
4.680,52100,8.781932,4.616021,6.938396,0.159478,0.010259,0.635380
4.700,52120,9.212888,4.242526,6.478710,0.219299,-0.014655,0.598342
4.720,52140,9.002198,4.065354,5.827487,0.255138,-0.053692,0.564101
4.740,52160,8.690952,3.701436,5.492299,0.242348,-0.095793,0.487360
4.760,52180,8.006210,4.031836,5.693412,0.218366,-0.145222,0.371182
4.780,52200,7.201759,4.343082,5.779603,0.223429,-0.063685,0.184126
4.800,52220,6.919243,4.616021,5.956774,0.180129,0.160677,0.009193
4.820,52240,6.919243,4.817134,6.320693,0.167605,0.407288,-0.136562
4.840,52260,7.388506,4.630386,6.426037,0.154815,0.640576,-0.207441
4.860,52280,7.829040,4.362236,6.105214,0.163608,0.796723,-0.181727
4.880,52300,8.058883,4.209007,5.951985,0.197315,0.756753,-0.077940
4.900,52320,7.862558,3.979163,5.908890,0.212104,0.653899,0.021850
4.920,52340,7.489063,3.677494,5.995081,0.247410,0.486560,0.120308
4.940,52360,7.082048,3.442862,6.100426,0.240083,0.398495,0.189322
4.960,52380,6.766014,3.045424,5.803545,0.188522,0.357060,0.198248
4.980,52400,6.737284,3.007117,5.492299,0.113113,0.277920,0.192119
5.000,52420,6.890512,3.189077,5.607220,0.067015,0.142957,0.150685
5.020,52440,6.789956,3.481169,5.722142,0.041035,0.085534,0.057822
5.040,52460,6.876147,4.046201,6.066907,0.000799,0.060087,-0.049962
5.060,52480,6.856994,4.472369,6.172252,0.011991,-0.007461,-0.185191
5.080,52500,7.144298,4.491522,6.038177,0.016521,-0.053026,-0.272325
5.100,52520,7.469909,4.472369,6.071695,0.020118,-0.114579,-0.268194
5.120,52540,7.699753,4.434062,6.167464,0.023848,-0.202245,-0.237018
5.140,52560,7.618350,4.501099,6.181829,-0.018652,-0.244879,-0.215302
5.160,52580,7.886500,4.438850,6.469133,-0.121507,-0.240349,-0.177997
5.180,52600,8.159439,4.367024,6.248867,-0.241548,-0.228358,-0.103654
5.200,52620,8.240842,4.256891,5.918467,-0.285914,-0.295907,0.023182
5.220,52640,7.967903,4.213795,5.803545,-0.290711,-0.385038,0.155214
5.240,52660,7.661446,4.347870,5.928043,-0.276721,-0.373181,0.237418
5.260,52680,7.565677,4.505888,6.138733,-0.237685,-0.296306,0.258868
5.280,52700,8.307879,5.094861,7.015011,-0.159078,-0.274989,0.222230
5.300,52720,8.949526,4.879383,7.436390,-0.103121,-0.164274,0.096459
5.320,52740,9.452309,4.836287,7.455544,-0.151884,-0.064084,0.034240
5.340,52760,10.103531,4.419696,7.331046,-0.159078,-0.146421,0.010259
5.360,52780,9.294291,4.079720,6.828263,-0.204243,-0.213037,0.025980
5.380,52800,7.929596,3.869030,6.612785,-0.258735,-0.231289,0.045432
5.400,52820,7.493851,3.327940,6.325481,-0.287247,-0.238484,0.102721
5.420,52840,7.795521,2.911349,6.042965,-0.318023,-0.290844,0.192519
5.440,52860,7.541735,3.078943,6.090849,-0.323219,-0.323619,0.228625
5.460,52880,6.818686,3.749320,6.421249,-0.298172,-0.292709,0.125904
5.480,52900,6.995857,4.328717,6.746861,-0.246345,-0.210639,-0.073011
5.500,52920,7.402872,4.132392,6.751649,-0.153482,-0.110848,-0.277254
5.520,52940,7.603985,3.983952,6.545747,-0.119775,-0.021983,-0.365187
5.540,52960,7.833828,3.993528,6.397307,-0.102322,-0.000933,-0.405289
5.560,52980,7.661446,3.739743,6.148310,-0.100057,-0.024914,-0.424475
5.580,53000,7.551312,3.682282,6.004658,-0.143757,-0.090997,-0.399960
5.600,53020,7.244854,3.758897,5.971139,-0.187456,-0.153349,-0.364254
5.620,53040,7.163452,3.629610,5.875371,-0.224894,-0.200646,-0.312960
5.640,53060,7.163452,3.552995,5.655105,-0.249542,-0.181194,-0.225161
5.660,53080,6.928820,3.562572,5.319916,-0.238351,-0.145622,-0.144556
5.680,53100,6.856994,3.356671,5.291186,-0.180129,-0.176931,-0.086334
5.700,53120,6.631939,3.136404,5.559336,-0.169737,-0.165740,-0.052227
5.720,53140,6.584054,3.160346,5.750873,-0.201979,-0.107784,-0.031443
5.740,53160,6.737284,3.462016,6.052542,-0.219165,-0.041302,-0.046764
5.760,53180,7.015011,3.485958,6.186617,-0.214502,0.051694,-0.079139
5.780,53200,7.359776,3.404555,6.143522,-0.235020,0.101789,-0.088066
5.800,53220,7.896077,3.548207,6.344635,-0.239550,0.055824,-0.045165
5.820,53240,8.164227,3.711013,6.272809,-0.205176,0.033041,-0.012524
5.840,53260,8.058883,3.854665,6.469133,-0.142291,0.006662,-0.005995
5.860,53280,8.049306,3.916914,6.651093,-0.087000,0.013856,-0.010525
5.880,53300,8.130709,3.983952,6.555324,-0.059421,0.043167,0.013190
5.900,53320,8.283937,4.017470,6.435614,-0.022783,0.026247,0.041568
5.920,53340,8.403648,4.103662,6.718130,0.028112,-0.008926,0.102455
5.940,53360,9.452309,4.577713,7.551312,0.051161,-0.035706,0.133231
5.960,53380,9.481039,4.596867,7.038953,0.090730,0.127236,0.160144
5.980,53400,10.137050,4.668694,7.153875,0.128435,0.060887,0.172268
6.000,53420,9.461885,4.539406,6.387730,0.158678,0.118043,0.148020
6.020,53440,8.757990,4.505888,6.100426,0.167338,0.039703,0.096992
6.040,53460,7.915231,4.256891,5.702989,0.138827,0.017587,-0.010658
6.060,53480,7.666234,3.778050,5.386954,0.048496,-0.042634,-0.042501
6.080,53500,7.469909,3.610456,5.291186,-0.034907,-0.095127,0.018386
6.100,53520,6.957550,4.041412,5.583278,-0.053026,-0.053426,0.083403
6.120,53540,6.962338,4.367024,5.726931,-0.043833,0.128568,0.088066
6.140,53560,7.570466,4.448427,5.861006,0.020384,0.272458,0.092462
6.160,53580,7.441179,4.716578,6.023811,0.102188,0.413949,0.043966
6.180,53600,7.201759,4.769250,6.124368,0.162942,0.511608,-0.071279
6.200,53620,7.374141,4.424485,6.291962,0.165873,0.543184,-0.186524
6.220,53640,7.647080,3.969586,6.426037,0.121240,0.495087,-0.240083
6.240,53660,7.857770,3.672705,6.220136,0.028112,0.419012,-0.217034
6.260,53680,7.694964,3.576937,6.062119,-0.045698,0.312960,-0.144556
6.280,53700,7.196970,3.620033,5.918467,-0.103521,0.213570,-0.083802
6.300,53720,6.823475,3.557784,5.827487,-0.134830,0.152150,-0.060221
6.320,53740,6.435614,3.366248,5.578490,-0.154548,0.123905,-0.045565
6.340,53760,6.560112,3.447650,5.597643,-0.171469,0.067681,-0.025181
6.360,53780,6.813898,3.720589,5.707777,-0.160943,0.048896,-0.058888
6.380,53800,6.933608,3.869030,5.851429,-0.147354,0.054758,-0.102855
6.400,53820,7.058106,3.854665,5.899313,-0.145755,0.041435,-0.134297
6.420,53840,7.091625,3.883395,5.870583,-0.156680,-0.002132,-0.130966
6.440,53860,7.441179,4.031836,5.980716,-0.174133,-0.076208,-0.122173
6.460,53880,8.049306,4.266468,6.076484,-0.171469,-0.160277,-0.116577
6.480,53900,8.350976,4.285621,6.129156,-0.169204,-0.230490,-0.121107
6.500,53920,8.585608,4.055778,6.038177,-0.177997,-0.302435,-0.087799
6.520,53940,8.221688,4.070143,6.014235,-0.209972,-0.346002,-0.048363
6.540,53960,7.694964,4.529830,6.148310,-0.247410,-0.340806,-0.074077
6.560,53980,7.374141,4.989516,6.258443,-0.271525,-0.292309,-0.185325
6.580,54000,7.900866,5.046977,6.392519,-0.281118,-0.274057,-0.234087
6.600,54020,9.318233,5.588067,7.321469,-0.281384,-0.348799,-0.184126
6.620,54040,9.691729,4.893748,7.422025,-0.281784,-0.236485,-0.149219
6.640,54060,9.112331,5.286397,7.206547,-0.381841,-0.114979,-0.047297
6.660,54080,8.633492,5.276821,7.259220,-0.316025,-0.085002,-0.068481
6.680,54100,8.212111,4.807557,6.636727,-0.351331,-0.017320,-0.135096
6.700,54120,8.111555,3.749320,6.368577,-0.363455,-0.107251,-0.133764
6.720,54140,7.637504,3.232172,6.435614,-0.430204,-0.197182,-0.029711
6.740,54160,7.378930,3.227384,6.507440,-0.495354,-0.229824,0.065283
6.760,54180,6.871359,3.466804,6.449979,-0.507744,-0.163741,0.066083
6.780,54200,6.502652,4.074931,6.478710,-0.458182,-0.078473,-0.051560
6.800,54220,6.928820,4.271256,6.689400,-0.349599,-0.021983,-0.286580
6.820,54240,7.431602,3.730166,6.521805,-0.262732,0.066083,-0.515338
6.840,54260,7.469909,3.246537,6.387730,-0.249409,0.116444,-0.614063
6.860,54280,7.393295,3.323152,6.339846,-0.268061,0.099657,-0.628452
6.880,54300,6.900089,3.682282,6.397307,-0.294574,0.108983,-0.661626
6.900,54320,6.579266,3.854665,6.449979,-0.315625,0.149619,-0.707858
6.920,54340,6.746861,3.806781,6.301539,-0.312694,0.168271,-0.711721
6.940,54360,6.909666,3.557784,6.038177,-0.313093,0.168005,-0.682943
6.960,54380,7.086837,3.323152,5.928043,-0.316424,0.124571,-0.566100
6.980,54400,6.919243,3.629610,6.033388,-0.297505,0.061953,-0.440596
7.000,54420,6.421249,4.003105,6.196194,-0.248210,0.033441,-0.403824
7.020,54440,6.239290,3.955221,6.584054,-0.206908,0.031043,-0.416481
7.040,54460,6.555324,3.816358,6.900089,-0.218233,0.036772,-0.397562
7.060,54480,6.943185,3.730166,6.904878,-0.261533,0.034374,-0.328415
7.080,54500,7.096414,4.003105,6.991069,-0.285381,-0.024914,-0.241149
7.100,54520,7.422025,4.017470,6.967127,-0.297772,-0.138960,-0.176398
7.120,54540,7.910442,3.730166,6.914454,-0.327083,-0.272325,-0.104720
7.140,54560,7.934384,3.825934,6.900089,-0.365986,-0.400626,-0.000799
7.160,54580,7.527370,4.113238,6.732495,-0.393565,-0.452453,0.073810
7.180,54600,7.225701,4.367024,6.694188,-0.362922,-0.501749,0.102721
7.200,54620,6.847417,4.199430,6.785168,-0.314825,-0.472704,0.122440
7.220,54640,6.684611,3.988740,6.833052,-0.317623,-0.389168,0.226760
7.240,54660,7.785944,5.626374,8.140285,-0.286181,-0.343870,0.316424
7.260,54680,8.197746,5.295974,8.269572,-0.135230,-0.073011,0.229957
7.280,54700,8.599973,6.598420,7.699753,-0.141625,0.188522,0.219965
7.300,54720,8.834604,6.224925,7.450756,0.103920,0.155881,0.067681
7.320,54740,8.355764,5.712565,6.354211,0.132165,0.158812,0.024248
7.340,54760,8.054094,5.272032,6.339846,0.205576,-0.026113,0.009593
7.360,54780,7.498640,4.817134,6.162675,0.149352,-0.110715,-0.012657
7.380,54800,7.278373,4.414908,5.813122,0.055025,-0.149352,0.026247
7.400,54820,6.919243,4.333505,5.635951,0.004130,-0.137628,0.079006
7.420,54840,6.411672,4.616021,5.856217,-0.007328,-0.075675,0.071812
7.440,54860,6.335058,4.510676,6.306327,-0.007061,0.086734,-0.007328
7.460,54880,5.597643,4.577713,6.220136,-0.030510,0.365720,-0.045299
7.480,54900,5.501875,4.807557,6.435614,-0.009593,0.523066,-0.046098
7.500,54920,5.808333,5.066131,6.627151,-0.002265,0.648570,-0.084202
7.520,54940,6.469133,4.702212,6.732495,-0.006795,0.719449,-0.131366
7.540,54960,6.919243,4.276044,6.502652,-0.037172,0.728908,-0.073677
7.560,54980,6.909666,4.314352,6.459556,-0.033974,0.618193,0.044499
7.580,55000,6.655881,4.338294,6.392519,-0.031443,0.493355,0.105386
7.600,55020,6.253655,4.180276,6.229713,-0.051427,0.376778,0.114845
7.620,55040,6.114791,3.897760,6.081272,-0.090198,0.249009,0.113913
7.640,55060,6.033388,3.730166,6.196194,-0.114845,0.138827,0.127636
7.660,55080,5.626374,4.065354,6.416461,-0.175332,0.136162,0.128302
7.680,55100,5.683835,4.386178,6.449979,-0.186790,0.130167,0.082603
7.700,55120,6.191406,4.730943,6.330269,-0.192919,0.097392,0.009859
7.720,55140,6.904878,4.707001,6.517017,-0.166139,-0.000133,-0.072078
7.740,55160,7.364564,4.261679,6.560112,-0.175732,-0.080472,-0.081671
7.760,55180,7.527370,4.228160,6.660669,-0.216501,-0.142557,-0.005995
7.780,55200,7.503428,4.299986,6.727707,-0.224361,-0.191453,0.069147
7.800,55220,7.153875,4.256891,6.813898,-0.207841,-0.183593,0.136429
7.820,55240,7.608773,5.248090,7.766790,-0.150418,-0.195051,0.195317
7.840,55260,8.595184,5.568913,8.901642,-0.021184,-0.101522,0.090331
7.860,55280,8.671799,5.650316,8.820239,-0.057822,0.186524,-0.035173
7.880,55300,9.730036,5.410896,8.906430,-0.057556,0.169737,-0.128035
7.900,55320,9.255983,4.419696,8.413225,-0.071545,0.182127,-0.063152
7.920,55340,8.063671,3.950433,7.967903,-0.112047,0.281917,0.143357
7.940,55360,6.766014,3.821146,7.287950,0.099923,0.172268,0.256870
7.960,55380,6.196194,4.419696,7.034164,0.194917,-0.106851,0.410619
7.980,55400,6.272809,4.745308,6.502652,0.196649,-0.346934,0.557706
8.000,55420,6.833052,3.462016,6.426037,0.171602,-0.263531,0.458848
8.020,55440,6.536170,3.145981,7.024588,0.100989,-0.295907,0.298971
8.040,55460,6.071695,2.619257,7.302315,0.059688,-0.256470,0.124038
8.060,55480,5.817910,3.251326,7.244854,0.025314,-0.209173,0.051427
8.080,55500,5.961562,3.883395,7.297527,0.083802,-0.181861,-0.042900
8.100,55520,5.688623,4.544195,7.369353,0.244346,-0.127369,-0.175865
8.120,55540,5.980716,4.663905,7.369353,0.353729,0.013456,-0.275389
8.140,55560,6.698977,4.496311,7.211336,0.374513,0.115778,-0.321753
8.160,55580,7.642292,4.012682,6.895301,0.319355,0.094594,-0.316291
8.180,55600,7.785944,3.663129,6.861782,0.261666,0.004796,-0.172801
8.200,55620,7.134721,3.916914,6.751649,0.181194,-0.024648,-0.037038
8.220,55640,6.938396,3.974375,6.612785,0.160011,-0.068614,0.048096
8.240,55660,6.900089,3.830723,6.368577,0.166406,-0.118576,0.122839
8.260,55680,7.105990,3.778050,6.062119,0.194518,-0.100723,0.211305
8.280,55700,7.158663,3.600879,5.846641,0.206242,-0.054358,0.310296
8.300,55720,6.732495,3.529053,5.942409,0.201845,-0.022383,0.389568
8.320,55740,6.172252,3.552995,6.349423,0.209972,0.007461,0.434334
8.340,55760,5.913678,3.552995,6.517017,0.177331,0.152683,0.450855
8.360,55780,6.210559,3.696647,6.641516,0.179196,0.250075,0.494021
8.380,55800,6.962338,3.993528,6.799533,0.219698,0.279119,0.534790
8.400,55820,7.723695,3.974375,6.751649,0.262998,0.273657,0.552243
8.420,55840,8.068460,3.734955,6.382942,0.281251,0.248476,0.572894
8.440,55860,7.771579,3.442862,6.239290,0.294175,0.112047,0.625654
8.460,55880,7.570466,4.692636,7.489063,0.305632,-0.050894,0.661227
8.480,55900,8.255207,5.133168,8.537724,0.344003,0.101922,0.508943
8.500,55920,9.457097,5.755661,8.125920,0.286314,0.418213,0.400493
8.520,55940,10.285490,4.917690,7.560889,0.365187,0.420877,0.304567
8.540,55960,9.854534,4.544195,6.751649,0.336142,0.342937,0.380908
8.560,55980,9.255983,4.347870,6.330269,0.344403,0.211038,0.454319
8.580,56000,8.485051,3.811569,5.477933,0.388103,0.044366,0.473504
8.600,56020,7.532158,3.715801,5.094861,0.435799,-0.123372,0.475369
8.620,56040,6.770802,3.854665,5.329493,0.454585,-0.163874,0.344003
8.640,56060,6.876147,4.012682,6.019023,0.416348,-0.143357,0.142158
8.660,56080,6.344635,3.749320,6.086061,0.389968,0.055291,-0.013190
8.680,56100,5.750873,3.734955,6.315904,0.308697,0.313227,-0.090464
8.700,56120,5.731719,4.031836,6.335058,0.219165,0.577291,-0.109116
8.720,56140,6.119579,4.534618,6.363788,0.185591,0.728508,-0.084335
8.740,56160,7.230489,4.668694,6.397307,0.197582,0.730240,-0.056757
8.760,56180,8.413225,4.390966,6.282385,0.180129,0.656830,0.030110
8.780,56200,8.470686,4.170700,6.172252,0.169603,0.491090,0.168937
8.800,56220,7.694964,3.840300,6.100426,0.183726,0.298172,0.308564
8.820,56240,7.115568,3.543418,5.990293,0.154548,0.202245,0.407554
8.840,56260,6.469133,3.414132,5.750873,0.124704,0.166939,0.446191
8.860,56280,6.167464,3.691859,5.679047,0.082337,0.122440,0.376378
8.880,56300,6.876147,3.892972,5.688623,0.031176,0.031576,0.231556
8.900,56320,7.206547,4.031836,5.559336,0.011325,-0.032508,0.154015
8.920,56340,7.560889,4.232949,5.650316,0.000666,-0.155081,0.110449
8.940,56360,8.154651,4.256891,5.803545,0.003997,-0.262466,0.074210
8.960,56380,8.125920,4.070143,5.908890,-0.016387,-0.335743,0.026247
8.980,56400,8.121132,3.763685,6.004658,-0.084469,-0.393965,0.008527
9.000,56420,8.125920,3.739743,6.038177,-0.180528,-0.389035,0.020251
9.020,56440,7.508216,4.213795,6.215348,-0.281917,-0.358658,0.023982
9.040,56460,7.805098,4.716578,6.574478,-0.332545,-0.332012,-0.008527
9.060,56480,9.634268,5.181053,7.235278,-0.323619,-0.381041,-0.065150
9.080,56500,10.663774,4.754885,6.928820,-0.333611,-0.338008,-0.126037
9.100,56520,10.524911,4.812346,7.182605,-0.336809,-0.335476,-0.037971
9.120,56540,9.466674,4.659117,7.015011,-0.281384,-0.251674,0.007461
9.140,56560,8.317456,4.568137,6.689400,-0.293908,-0.150951,0.033308
9.160,56580,7.594408,4.299986,6.488286,-0.247677,-0.069147,0.001998
9.180,56600,7.541735,3.552995,6.272809,-0.235153,-0.169470,0.019718
9.200,56620,7.465121,3.256114,6.100426,-0.316957,-0.204110,0.091930
9.220,56640,7.168240,3.658340,6.009446,-0.356793,-0.200113,0.148953
9.240,56660,7.115568,4.180276,6.042965,-0.319222,-0.193185,0.038371
9.260,56680,7.493851,4.252102,6.153099,-0.258202,-0.179995,-0.119242
9.280,56700,7.201759,4.232949,6.038177,-0.201446,-0.084202,-0.261266
9.300,56720,6.813898,4.141969,5.932832,-0.182926,-0.070613,-0.345735
9.320,56740,6.880936,3.912126,6.033388,-0.163342,-0.048096,-0.431136
9.340,56760,7.206547,3.830723,6.100426,-0.145222,-0.072078,-0.412484
9.360,56780,7.350199,3.811569,6.090849,-0.107651,-0.091130,-0.309096
9.380,56800,7.671022,3.739743,5.865794,-0.105519,-0.099657,-0.169603
9.400,56820,8.092402,3.648763,5.564125,-0.093129,-0.163874,-0.051161
9.420,56840,8.379706,3.423708,5.367800,-0.088466,-0.307098,0.025714
9.440,56860,8.360553,3.026271,5.243302,-0.102721,-0.388902,0.072211
9.460,56880,7.790732,2.901772,5.334281,-0.141492,-0.413283,0.137095
9.480,56900,7.311892,2.978387,5.329493,-0.182527,-0.398095,0.180795
9.500,56920,6.880936,3.251326,5.343858,-0.191054,-0.354662,0.217034
9.520,56940,6.598420,3.778050,5.693412,-0.149352,-0.267395,0.206908
9.540,56960,6.464345,3.936068,5.918467,-0.079939,-0.086734,0.135363
9.560,56980,7.115568,3.897760,6.258443,-0.048363,0.055291,0.080338
9.580,57000,8.245630,3.414132,6.057330,-0.036239,0.187323,0.052626
9.600,57020,8.805874,3.093309,6.028600,-0.068348,0.189322,0.128568
9.620,57040,8.738836,3.327940,6.234501,-0.083003,0.163475,0.221430
9.640,57060,8.432379,3.677494,6.296751,-0.087266,0.212237,0.256204
9.660,57080,8.082825,3.883395,6.253655,-0.046764,0.282583,0.254738
9.680,57100,9.289502,4.386178,7.187394,0.013456,0.214236,0.249809
9.700,57120,9.720459,3.778050,6.842628,0.125904,0.434734,0.236752
9.720,57140,10.481815,3.825934,6.684611,0.145489,0.450188,0.375179
9.740,57160,10.017340,3.787627,6.272809,0.262066,0.471505,0.431669
9.760,57180,9.346964,4.022259,5.659893,0.311095,0.367319,0.459914
9.780,57200,9.524135,3.993528,5.343858,0.426606,0.140026,0.419412
9.800,57220,9.236830,3.797204,5.056554,0.510142,-0.167605,0.347734
9.820,57240,8.451532,3.605668,5.161899,0.534923,-0.323885,0.217034
9.840,57260,7.139510,3.495534,5.535394,0.444859,-0.263531,0.042767
9.860,57280,6.694188,3.222595,5.937620,0.317224,-0.134164,-0.131632
9.880,57300,6.856994,3.356671,6.248867,0.168937,0.115112,-0.244346
9.900,57320,6.837840,3.600879,5.947197,0.030510,0.436466,-0.335077
9.920,57340,7.738060,3.864242,5.406107,-0.085668,0.616328,-0.380375
9.940,57360,8.413225,4.041412,5.166687,-0.027712,0.597009,-0.302968
9.960,57380,8.422802,4.376601,5.372589,0.111381,0.476968,-0.157080
9.980,57400,8.379706,4.223372,5.736507,0.250208,0.360790,-0.051294
10.000,57420,8.097190,3.596091,5.669470,0.289645,0.266596,0.003331
10.020,57440,7.714118,2.920926,5.640739,0.236485,0.113913,0.097659
10.040,57460,7.580042,2.734178,5.597643,0.077940,0.033574,0.168138
10.060,57480,7.268796,2.987964,5.358223,-0.093795,0.042634,0.180395
10.080,57500,7.196970,3.423708,5.281609,-0.185591,-0.044632,0.124838
10.100,57520,7.546524,3.763685,5.133168,-0.221031,-0.115645,0.040502
10.120,57540,7.594408,3.902549,4.903325,-0.230090,-0.145222,-0.040769
10.140,57560,7.742848,4.094085,4.965574,-0.189188,-0.192652,-0.115511
10.160,57580,7.924808,4.175488,5.214571,-0.143623,-0.272325,-0.176665
10.180,57600,8.480263,3.749320,5.367800,-0.139760,-0.308430,-0.219832
10.200,57620,8.872911,3.366248,5.353435,-0.223162,-0.353063,-0.147354
10.220,57640,8.815451,3.203442,5.386954,-0.332678,-0.402092,-0.021051
10.240,57660,8.767567,3.318364,5.324705,-0.454585,-0.436732,0.107251
10.260,57680,8.762778,3.854665,5.525817,-0.498685,-0.478300,0.179196
10.280,57700,8.983045,4.726154,6.215348,-0.495221,-0.502282,0.128435
10.300,57720,10.457873,4.979939,7.000646,-0.468574,-0.472704,-0.057023
10.320,57740,10.309433,4.515464,6.943185,-0.481364,-0.237551,-0.177997
10.340,57760,10.204087,4.472369,7.029376,-0.516271,-0.174000,-0.199314
10.360,57780,9.045294,4.410120,6.698977,-0.490557,0.012257,-0.206508
10.380,57800,8.183381,3.912126,6.459556,-0.443127,0.146288,-0.134564
10.400,57820,8.441956,2.715025,5.884948,-0.397695,0.189855,0.074876
10.420,57840,8.810662,2.303222,5.683835,-0.425541,0.107917,0.367585
10.440,57860,8.078036,2.978387,5.774815,-0.416481,0.047430,0.497752
10.460,57880,7.153875,3.682282,5.693412,-0.383040,0.064750,0.400626
10.480,57900,7.996634,3.892972,5.841852,-0.302435,0.017320,0.195717
10.500,57920,8.461109,3.385401,5.626374,-0.203711,-0.000266,-0.014256
10.520,57940,7.733272,2.849100,5.621585,-0.165340,-0.100856,-0.145755
10.540,57960,7.153875,2.791639,5.884948,-0.205709,-0.127902,-0.222629
10.560,57980,7.331046,3.174711,6.047753,-0.224361,-0.141758,-0.301103
10.580,58000,7.963115,3.275268,6.014235,-0.207441,-0.185724,-0.368917
10.600,58020,8.360553,3.169923,5.707777,-0.192253,-0.208640,-0.315092
10.620,58040,8.710106,3.155558,5.453991,-0.166939,-0.285115,-0.199847
10.640,58060,8.647857,2.892196,5.372589,-0.153616,-0.414882,-0.103254
10.660,58080,8.130709,2.590526,5.319916,-0.181194,-0.494155,-0.012257
10.680,58100,7.192182,2.542642,5.200206,-0.224495,-0.481231,0.105119
10.700,58120,7.211336,2.815581,5.324705,-0.254338,-0.446325,0.198515
10.720,58140,7.187394,3.074155,5.391742,-0.193985,-0.335876,0.247544
10.740,58160,7.608773,3.131616,5.525817,-0.146021,-0.253273,0.261666
10.760,58180,7.896077,2.887407,5.635951,-0.107384,-0.181727,0.286980
10.780,58200,8.006210,2.935291,5.645528,-0.093662,-0.116178,0.331080
10.800,58220,8.461109,2.968810,5.880159,-0.035173,-0.091796,0.357593
10.820,58240,8.729259,2.992752,5.990293,0.003864,-0.022116,0.389168
10.840,58260,9.011775,2.873042,5.851429,0.055691,0.029444,0.466709
10.860,58280,9.064447,2.700660,5.674258,0.122173,0.005729,0.539986
10.880,58300,8.863335,2.681506,5.942409,0.169070,-0.010392,0.605536
10.900,58320,10.539276,2.920926,7.053318,0.201046,-0.051161,0.672285
10.920,58340,10.884041,2.715025,6.545747,0.303368,0.149219,0.732239
10.940,58360,11.698070,2.839523,6.382942,0.357459,0.192386,0.778870
10.960,58380,11.099519,2.753332,5.592855,0.504813,0.183326,0.773274
10.980,58400,10.481815,3.055001,4.874595,0.577158,0.033974,0.712654
11.000,58420,9.988609,3.184288,4.252102,0.655098,-0.169070,0.560637
11.020,58440,9.720459,3.294421,3.830723,0.779936,-0.399694,0.465910
11.040,58460,9.586384,3.892972,3.078943,1.047198,-0.462579,0.615795
11.060,58480,9.002198,3.758897,3.208230,1.454885,-0.455384,0.845619
11.080,58500,9.260772,3.217807,3.457227,1.688573,-0.382907,1.008560
11.100,58520,9.490616,3.117251,3.758897,1.864305,-0.257003,1.171369
11.120,58540,8.796297,3.256114,4.017470,2.053093,-0.067948,1.246378
11.140,58560,8.355764,2.715025,4.084508,2.203245,0.130034,1.254905
11.160,58580,8.283937,2.059013,4.496311,2.186724,0.252207,1.160577
11.180,58600,8.384495,1.556231,4.759673,2.042035,0.386237,0.987377
11.200,58620,8.437167,0.881066,4.845864,1.861240,0.454052,0.860807
11.220,58640,8.590396,0.244209,5.109226,1.621557,0.466842,0.843087
11.240,58660,8.892065,-0.014365,4.869806,1.295407,0.447257,0.841355
11.260,58680,8.614338,-0.186748,4.730943,1.065317,0.358525,0.866136
11.280,58700,8.087613,-0.306458,4.687847,0.817107,0.279386,0.934617
11.300,58720,8.451532,-0.215478,4.548983,0.575026,0.207441,0.936616
11.320,58740,8.671799,-0.071826,4.371812,0.381708,0.106585,0.842021
11.340,58760,9.136273,0.071826,4.290410,0.202645,-0.018253,0.695201
11.360,58780,9.519346,0.411803,4.050989,0.051694,-0.129634,0.518936
11.380,58800,9.744401,0.900220,4.055778,-0.058622,-0.254338,0.314426
11.400,58820,9.811439,1.355118,4.003105,-0.122306,-0.299237,0.102721
11.420,58840,10.079589,1.125275,3.998317,-0.150551,-0.282184,-0.030910
11.440,58860,9.528923,0.770933,4.477157,-0.262998,-0.205043,-0.125904
11.460,58880,9.974244,0.325611,3.787627,-0.243547,-0.254738,-0.062352
11.480,58900,10.654198,0.469264,3.663129,-0.473504,-0.257536,-0.009859
11.500,58920,10.678140,1.134852,3.950433,-0.607401,-0.213170,-0.084602
11.520,58940,11.200075,1.173159,5.013458,-0.674683,-0.189188,-0.134830
11.540,58960,13.785813,0.363919,4.601655,-0.885455,-0.335077,-0.055424
11.560,58980,13.081918,0.794875,4.802769,-0.735037,-0.196649,0.075142
11.580,59000,12.636597,0.679953,4.874595,-0.757553,-0.010925,0.155348
11.600,59020,11.291056,1.125275,4.414908,-0.724778,0.090597,0.160677
11.620,59040,9.615114,1.067814,4.103662,-0.697732,0.120175,0.059021
11.640,59060,8.413225,0.244209,3.998317,-0.680012,0.150685,0.011058
11.660,59080,8.154651,-0.478840,3.988740,-0.737435,0.138294,0.103521
11.680,59100,8.997410,-0.603339,3.600879,-0.857210,0.110982,0.273391
11.700,59120,9.892841,-0.038307,3.505111,-0.868801,-0.041302,0.362655
11.720,59140,10.400413,0.296881,3.806781,-0.817507,-0.132032,0.323485
11.740,59160,10.496181,0.344765,3.610456,-0.748493,-0.158812,0.265663
11.760,59180,9.787497,0.603339,4.098873,-0.635646,-0.205709,0.139360
11.780,59200,8.724471,0.809240,4.625597,-0.556907,-0.084069,-0.046631
11.800,59220,8.590396,0.363919,4.577713,-0.522666,0.067015,-0.206375
11.820,59240,8.935161,-0.004788,4.309563,-0.487093,0.119908,-0.250075
11.840,59260,8.738836,0.335188,4.050989,-0.428072,0.128035,-0.192119
11.860,59280,9.174581,0.445322,4.022259,-0.323086,0.060487,-0.135096
11.880,59300,9.356541,0.177171,3.811569,-0.272191,-0.077674,-0.144556
11.900,59320,9.308656,-0.517148,3.892972,-0.284848,-0.226360,-0.145222
11.920,59340,8.695741,-0.727837,3.758897,-0.348666,-0.267528,-0.068214
11.940,59360,8.480263,-0.660800,3.869030,-0.403158,-0.286447,0.049162
11.960,59380,8.777143,-0.660800,3.974375,-0.460047,-0.266729,0.126703
11.980,59400,9.418790,-0.301669,3.912126,-0.514006,-0.246211,0.186257
12.000,59420,9.265560,0.263362,3.983952,-0.400360,-0.220231,0.208240
12.020,59440,9.323022,0.248997,4.510676,-0.250075,-0.169070,0.181328
12.040,59460,10.242394,-0.483629,4.917690,-0.183459,-0.110182,0.175066
12.060,59480,11.492168,-1.350330,4.817134,-0.189055,-0.108850,0.253806
12.080,59500,11.099519,-1.350330,4.707001,-0.202911,-0.108850,0.362389
12.100,59520,10.223241,-0.641646,4.707001,-0.242881,-0.072744,0.389035
12.120,59540,10.247183,0.100556,4.548983,-0.255271,-0.053426,0.294308
12.140,59560,11.583148,0.038307,5.281609,-0.130167,-0.014922,0.173867
12.160,59580,13.364434,-0.416591,4.802769,-0.003064,0.041835,0.229691
12.180,59600,12.143391,-0.526724,4.429273,0.123372,0.086867,0.300436
12.200,59620,11.860875,-0.416591,3.490746,0.130300,-0.066482,0.329881
12.220,59640,10.970232,-0.114922,2.710236,0.142691,-0.244213,0.223695
12.240,59660,10.711658,-0.397437,2.035071,0.114446,-0.470972,0.037838
12.260,59680,9.864111,-0.560243,2.097321,0.116311,-0.583819,-0.151750
12.280,59700,9.078813,-0.632069,1.872266,0.006662,-0.687606,-0.158145
12.300,59720,8.494628,-0.526724,2.217031,-0.025314,-0.544516,-0.130700
12.320,59740,9.102755,-0.445322,2.264915,-0.063818,-0.254605,-0.019319
12.340,59760,9.423578,0.225055,2.533065,0.044632,-0.023182,0.076608
12.360,59780,9.380483,0.718261,2.724602,0.234354,0.191986,0.025314
12.380,59800,9.222465,0.608127,2.691083,0.388369,0.300037,-0.133098
12.400,59820,9.102755,-0.004788,2.944868,0.473371,0.342671,-0.297639
12.420,59840,9.557653,-0.536301,2.901772,0.524132,0.412084,-0.328149
12.440,59860,9.777920,-0.727837,2.944868,0.572095,0.404623,-0.247810
12.460,59880,9.610326,-0.641646,3.165135,0.563435,0.357859,-0.173467
12.480,59900,9.495404,-0.373495,3.313575,0.513873,0.337342,-0.163608
12.500,59920,8.868123,-0.282516,3.055001,0.478966,0.362655,-0.194118
12.520,59940,8.681376,-0.359130,3.098097,0.429538,0.356127,-0.182260
12.540,59960,9.495404,-0.454898,3.208230,0.363455,0.371315,-0.120574
12.560,59980,9.945514,-0.191536,3.203442,0.344270,0.338940,-0.061686
12.580,60000,9.366117,0.339977,3.284845,0.342937,0.267928,-0.025580
12.600,60020,8.983045,0.905008,3.485958,0.404757,0.195983,-0.035306
12.620,60040,9.423578,0.785298,4.089296,0.522266,0.328015,-0.141758
12.640,60060,10.850522,0.263362,3.988740,0.550245,0.397162,-0.199314
12.660,60080,11.511322,0.124498,4.333505,0.555841,0.290711,-0.277654
12.680,60100,11.085154,0.004788,4.491522,0.474037,0.267262,-0.317224
12.700,60120,10.520123,0.248997,4.414908,0.385305,0.303900,-0.243547
12.720,60140,9.959879,0.804452,4.481946,0.414749,0.300170,-0.167738
12.740,60160,10.591949,0.770933,5.353435,0.524398,0.318689,-0.080738
12.760,60180,12.397177,-0.114922,5.027823,0.340273,0.277121,0.077940
12.780,60200,11.343728,0.497994,5.023035,0.402225,0.284848,0.236219
12.800,60220,10.563218,0.895431,5.348647,0.354528,0.257536,0.197715
12.820,60240,9.495404,1.125275,5.497087,0.314959,0.193452,0.020118
12.840,60260,9.327810,0.967257,4.869806,0.266063,0.343470,-0.161609
12.860,60280,9.686940,0.076614,4.683059,0.116977,0.266862,-0.198248
12.880,60300,9.078813,-0.445322,5.094861,0.058489,0.204377,-0.063152
12.900,60320,9.667787,-0.344765,5.075707,-0.044632,0.163342,0.116711
12.920,60340,10.390836,0.785298,4.812346,-0.048763,0.089665,0.224095
12.940,60360,10.400413,1.168370,4.879383,0.109250,-0.090464,0.133098
12.960,60380,10.323798,1.206678,4.625597,0.301636,-0.018519,0.063418
12.980,60400,9.720459,0.646434,4.027047,0.353063,-0.081538,-0.052227
13.000,60420,8.983045,0.866701,4.079720,0.379842,-0.156413,-0.121107
13.020,60440,9.141062,0.833182,4.103662,0.426207,-0.150818,-0.128035
13.040,60460,9.299079,0.598550,3.960010,0.418213,-0.132165,-0.068881
13.060,60480,8.901642,0.526724,4.089296,0.355994,-0.129101,-0.042501
13.080,60500,8.461109,0.598550,4.381389,0.311894,-0.066216,-0.088599
13.100,60520,8.657434,0.497994,3.749320,0.270859,0.023715,-0.121374
13.120,60540,8.925584,0.339977,4.113238,0.150418,-0.176798,-0.045432
13.140,60560,9.021352,0.598550,4.065354,0.118975,-0.361590,-0.065683
13.160,60580,8.906430,0.588974,4.405331,0.136429,-0.169470,-0.050628
13.180,60600,9.533711,0.708684,3.653552,0.052626,-0.077674,-0.026380
13.200,60620,9.610326,1.163582,4.094085,0.047164,-0.110848,0.011991
13.220,60640,9.208099,1.388637,4.515464,0.089798,-0.020251,-0.058888
13.240,60660,9.351752,1.508347,4.721366,0.094994,-0.026247,-0.115112
13.260,60680,9.500193,1.158794,4.955997,0.134564,-0.025447,-0.144023
13.280,60700,9.696517,0.837971,5.061342,0.138827,0.023315,-0.068881
13.300,60720,10.319010,0.603339,5.008670,0.139360,0.010925,0.075675
13.320,60740,10.333375,0.440533,4.917690,0.121640,0.033974,0.179729
13.340,60760,10.022128,0.354342,4.750096,0.051960,0.060221,0.238217
13.360,60780,8.954314,0.651223,4.764462,-0.039570,0.091263,0.232755
13.380,60800,8.700529,1.029507,5.042189,-0.073544,0.143757,0.144556
13.400,60820,10.625467,1.187524,6.196194,0.011458,0.189055,0.040369
13.420,60840,11.707646,0.598550,5.032612,-0.090997,0.333877,0.011458
13.440,60860,13.019669,-0.095768,4.553771,0.038104,0.128035,0.336009
13.460,60880,12.363658,0.608127,5.061342,0.035706,-0.025181,0.368118
13.480,60900,11.544841,0.483629,4.510676,0.057689,-0.024248,0.251807
13.500,60920,10.390836,0.588974,3.892972,-0.201979,0.205176,0.079406
13.520,60940,8.853758,0.067038,3.088520,-0.418213,-0.294308,-0.158945
13.540,60960,7.771579,-0.181959,3.409343,-0.624322,-0.570230,-0.336009
13.560,60980,8.106767,-0.191536,2.858677,-0.658429,-0.638977,-0.313493
13.580,61000,9.346964,0.804452,3.361459,-0.617260,-0.613263,-0.298305
13.600,61020,9.931149,1.019930,4.199430,-0.525864,-0.468708,-0.280185
13.620,61040,9.998186,0.952892,3.572149,-0.701596,-0.310429,-0.249809
13.640,61060,10.251971,1.862689,2.849100,-0.731972,-0.251141,-0.299904
13.660,61080,10.036493,2.442086,2.901772,-0.552910,-0.449256,-0.340006
13.680,61100,8.935161,2.748544,4.098873,-0.201845,-0.415548,-0.553043
13.700,61120,8.724471,2.054225,4.218584,-0.076208,-0.198515,-0.821904
13.720,61140,8.508993,1.920150,4.448427,-0.005329,0.103521,-1.038271
13.740,61160,8.264784,1.302446,3.979163,-0.161210,0.420345,-1.108484
13.760,61180,9.136273,0.335188,3.912126,-0.298305,0.497219,-0.773940
13.780,61200,8.992621,0.718261,3.744531,-0.451254,0.473637,-0.336675
13.800,61220,8.499416,1.651999,3.811569,-0.456184,0.458982,-0.084602
13.820,61240,8.216900,2.461239,3.883395,-0.288712,0.411018,0.001199
13.840,61260,8.834604,2.470816,3.912126,-0.150685,0.373714,-0.018786
13.860,61280,10.017340,2.509123,3.773262,-0.008260,0.294441,-0.078473
13.880,61300,10.692505,2.221819,4.036624,0.085002,0.166006,-0.086600
13.900,61320,10.443508,1.920150,4.434062,0.100723,0.194917,-0.094461
13.920,61340,10.132261,1.565808,4.218584,0.018386,0.255138,-0.042900
13.940,61360,10.132261,1.192312,3.993528,-0.141092,0.228891,0.069280
13.960,61380,10.295067,1.388637,4.405331,-0.186257,0.052360,0.181061
13.980,61400,10.266336,1.417367,4.477157,-0.164274,0.107118,0.219032
14.000,61420,10.395624,1.283292,4.663905,-0.203311,0.216101,0.270859
14.020,61440,10.357317,1.307234,4.529830,-0.225827,0.257936,0.326550
14.040,61460,10.256760,1.647211,4.410120,-0.242481,0.262066,0.304966
14.060,61480,10.989386,1.580173,5.712565,-0.126969,0.152283,0.214902
14.080,61500,11.281479,1.589750,5.521029,-0.185591,0.231289,0.246744
14.100,61520,10.898406,1.508347,5.056554,-0.125104,0.232222,0.262998
14.120,61540,11.094730,1.292869,5.315128,0.007994,0.280985,0.291643
14.140,61560,9.758766,1.508347,5.185841,0.061420,0.312427,0.314959
14.160,61580,8.125920,1.240196,5.152322,0.087666,0.309496,0.267262
14.180,61600,7.445967,0.474052,5.046977,0.046364,0.309896,0.250475
14.200,61620,7.896077,-0.296881,5.214571,-0.011724,0.275522,0.380642
14.220,61640,8.949526,-0.311246,5.315128,-0.097925,0.287513,0.575559
14.240,61660,9.643845,0.603339,5.396531,-0.097525,0.267262,0.652167
14.260,61680,9.964667,0.823605,6.133945,0.018919,0.160144,0.592080
14.280,61700,10.840945,0.043096,6.191406,-0.074343,-0.063285,0.443660
14.300,61720,12.004527,0.373495,5.468357,-0.272325,-0.587683,0.168005
14.320,61740,10.989386,1.479617,5.171476,-0.238351,-1.069980,-0.176665
14.340,61760,9.471462,1.872266,4.683059,-0.088865,-1.239717,-0.391833
14.360,61780,8.518570,1.685518,4.127604,0.129368,-1.207475,-0.497352
14.380,61800,7.742848,0.852336,3.940856,0.221031,-1.080239,-0.577824
14.400,61820,7.469909,0.421380,3.481169,0.107384,-0.825368,-0.652300
14.420,61840,7.541735,0.134075,3.418920,-0.014389,-0.523199,-0.603404
14.440,61860,7.843405,0.086191,3.246537,-0.205842,-0.177864,-0.394231
14.460,61880,8.236053,0.612916,3.308787,-0.294308,-0.067681,-0.237285
14.480,61900,8.604761,1.259350,3.490746,-0.281784,0.007861,-0.174533
14.500,61920,8.863335,1.441309,3.787627,-0.175865,0.154282,-0.188522
14.520,61940,9.734824,0.928950,3.792415,-0.118309,0.191453,-0.149752
14.540,61960,9.964667,0.612916,3.969586,-0.132698,0.153616,-0.099124
14.560,61980,9.797073,0.708684,4.084508,-0.216234,0.123239,-0.111381
14.580,62000,9.706094,0.885855,4.505888,-0.290178,0.055957,-0.163342
14.600,62020,9.548077,1.034295,4.707001,-0.356527,0.120841,-0.208907
14.620,62040,10.409989,0.995988,4.994305,-0.482031,0.140426,-0.228358
14.640,62060,10.572795,1.034295,5.353435,-0.564234,0.103654,-0.324152
14.660,62080,10.041282,0.818817,5.698200,-0.807248,0.175466,-0.468974
14.680,62100,10.261548,0.684742,5.741296,-1.111948,0.218100,-0.538254
14.700,62120,10.127473,1.211466,5.540183,-1.344303,0.219165,-0.564900
14.720,62140,10.261548,1.872266,5.674258,-1.362423,0.182926,-0.476835
14.740,62160,11.712435,1.556231,5.410896,-1.261966,0.235153,-0.254472
14.760,62180,11.200075,1.843535,5.051765,-1.199614,0.282450,-0.097925
14.780,62200,11.300632,1.886631,4.869806,-1.106086,0.194518,-0.089798
14.800,62220,10.912771,2.379837,4.113238,-0.951804,0.125104,-0.112980
14.820,62240,10.955867,2.355895,3.064578,-0.676948,-0.039570,-0.074476
14.840,62260,10.860099,1.867477,2.853889,-0.420078,-0.328415,0.009193
14.860,62280,11.607090,1.608904,2.767697,-0.259668,-0.738900,0.087933
14.880,62300,11.789049,0.986411,2.944868,-0.072078,-1.214802,0.220231
14.900,62320,10.309433,0.622492,3.169923,-0.044766,-1.447424,0.246078
14.920,62340,8.700529,0.545878,3.423708,-0.074210,-1.599041,0.189455
14.940,62360,7.704541,1.077391,3.284845,-0.157346,-1.481265,-0.006129
14.960,62380,7.196970,1.695095,2.566584,-0.213436,-1.018420,-0.231956
14.980,62400,7.714118,1.877054,2.322376,-0.237285,-0.512940,-0.355994
15.000,62420,8.355764,2.217031,2.413355,-0.170136,-0.076741,-0.363455
15.020,62440,9.054871,2.485181,2.537854,0.003064,0.289112,-0.312960
15.040,62460,9.394848,2.815581,2.580950,0.245945,0.530660,-0.236352
15.060,62480,9.002198,3.284845,2.595315,0.594345,0.620458,-0.148286
15.080,62500,9.112331,2.983175,2.949656,1.005896,0.677481,-0.043700
15.100,62520,9.610326,1.881842,3.136404,1.338308,0.673084,0.096060
15.120,62540,8.801085,1.082179,3.418920,1.409853,0.798855,0.280585
15.140,62560,8.686164,0.938527,3.907337,1.399461,0.831230,0.405956
15.160,62580,8.858546,1.034295,4.156334,1.384672,0.892250,0.448323
15.180,62600,9.356541,1.091756,4.261679,1.314992,0.912101,0.414749
15.200,62620,9.792285,1.110910,4.113238,1.238118,0.848017,0.356660
15.220,62640,10.165780,0.924162,4.338294,1.175233,0.664957,0.276855
15.240,62660,10.323798,0.387861,4.232949,1.033874,0.527063,0.222763
15.260,62680,10.070012,0.316035,4.505888,0.833495,0.373714,0.211172
15.280,62700,10.204087,0.651223,4.912902,0.664158,0.291910,0.208507
15.300,62720,10.314221,1.139640,4.908113,0.522799,0.286181,0.165340
15.320,62740,10.395624,1.628057,4.793192,0.435133,0.287113,0.059155
15.340,62760,10.429143,1.637634,4.750096,0.355861,0.240216,-0.091663
15.360,62780,10.635044,1.613692,5.003881,0.277521,0.133897,-0.201579
15.380,62800,11.587936,0.972046,5.497087,0.138294,0.025580,-0.226360
15.400,62820,11.286267,1.675941,5.109226,0.048896,0.064484,-0.119508
15.420,62840,10.927136,1.877054,5.626374,-0.034374,0.040769,-0.120574
15.440,62860,10.596737,1.991976,5.248090,-0.136296,0.151884,-0.077940
15.460,62880,9.414001,2.035071,5.037400,-0.229424,0.215035,-0.027979
15.480,62900,8.753201,1.699883,4.620809,-0.278986,0.231023,0.027179
15.500,62920,8.283937,1.489193,4.496311,-0.339606,0.117110,0.139760
15.520,62940,8.441956,1.522712,4.692636,-0.295240,0.035972,0.234221
15.540,62960,9.088389,1.163582,4.769250,-0.311495,-0.021450,0.276988
15.560,62980,10.022128,1.561020,4.802769,-0.328815,-0.142025,0.223029
15.580,63000,10.998962,1.814805,4.874595,-0.252606,-0.264198,0.154815
15.600,63020,10.113108,2.327164,4.654328,-0.145089,-0.239417,0.055025
15.620,63040,9.251195,2.006341,4.568137,-0.076208,-0.244346,-0.127103
15.640,63060,9.246407,1.642422,4.438850,-0.055691,-0.271126,-0.253539
15.660,63080,9.284714,1.747767,4.137180,-0.050495,-0.245945,-0.338008
15.680,63100,9.050082,1.695095,3.926491,-0.059821,-0.208773,-0.374779
15.700,63120,8.992621,1.115698,3.643975,-0.126037,-0.249809,-0.324152
15.720,63140,9.088389,1.029507,3.648763,-0.144289,-0.293375,-0.164008
15.740,63160,8.662222,1.312023,3.591303,-0.174666,-0.224761,-0.043567
15.760,63180,8.192958,1.417367,3.624821,-0.133897,-0.192919,0.027179
15.780,63200,8.245630,1.154005,3.634398,-0.158545,-0.126436,0.008660
15.800,63220,8.489840,1.091756,3.754108,-0.201446,-0.090331,0.002531
15.820,63240,8.513782,1.608904,3.658340,-0.233821,0.025181,0.022516
15.840,63260,8.844181,1.905785,3.864242,-0.146421,0.101789,0.048363
15.860,63280,8.925584,1.977611,4.209007,-0.023449,0.206642,0.068348
15.880,63300,9.107543,1.886631,4.501099,0.042900,0.296972,0.073410
15.900,63320,9.926360,1.307234,4.783615,0.033441,0.300037,0.069680
15.920,63340,10.031705,1.359907,5.075707,-0.034374,0.307231,0.055291
15.940,63360,10.544065,1.599327,5.640739,-0.116044,0.271792,0.033708
15.960,63380,10.903194,1.695095,5.324705,-0.213836,0.262066,0.023582
15.980,63400,10.706870,2.183512,5.257667,-0.165740,0.235686,0.038371
16.000,63420,10.338163,1.455675,5.181053,-0.206109,0.226626,0.044899
16.020,63440,9.969456,1.316811,5.252879,-0.321354,0.172668,0.096060
16.040,63460,10.649409,1.067814,6.239290,-0.420345,0.170403,0.148286
16.060,63480,11.089942,0.905008,5.592855,-0.629651,0.276721,0.271259
16.080,63500,11.022904,1.177947,5.913678,-0.632182,0.196649,0.326683
16.100,63520,10.749966,0.799663,5.099649,-0.711855,0.217833,0.452853
16.120,63540,10.548853,0.909797,4.711789,-0.729974,0.064484,0.484429
16.140,63560,10.486604,0.588974,3.883395,-0.722113,-0.142291,0.481764
16.160,63580,10.520123,0.316035,3.490746,-0.726243,-0.552377,0.424475
16.180,63600,10.007763,1.067814,3.361459,-0.698931,-0.733038,0.306965
16.200,63620,9.744401,1.177947,3.165135,-0.687740,-0.850282,0.165340
16.220,63640,9.313444,1.082179,3.265691,-0.615662,-0.916897,-0.038104
16.240,63660,8.916007,1.302446,3.687071,-0.580355,-0.769410,-0.219698
16.260,63680,8.508993,2.360683,3.447650,-0.542917,-0.341072,-0.304300
16.280,63700,8.930372,2.035071,3.227384,-0.440329,0.110848,-0.422210
16.300,63720,9.260772,1.795651,3.093309,-0.316291,0.440995,-0.419279
16.320,63740,9.658210,0.565032,3.509900,-0.240882,0.579156,-0.321487
16.340,63760,8.772355,0.454898,3.974375,-0.215701,0.733172,-0.144556
16.360,63780,8.508993,0.823605,4.462792,-0.216368,0.809513,-0.055957
16.380,63800,8.652645,0.641646,4.788404,-0.193319,0.805516,-0.046631
16.400,63820,8.532935,0.316035,5.257667,-0.183459,0.722513,-0.015322
16.420,63840,8.307879,0.143652,4.898537,-0.187590,0.677081,0.014789
16.440,63860,8.006210,0.086191,5.070919,-0.188655,0.528662,0.000533
16.460,63880,8.576031,0.359130,5.090073,-0.245012,0.393165,-0.022916
16.480,63900,9.375694,0.675165,4.683059,-0.252873,0.277654,-0.036239
16.500,63920,9.165004,0.876278,4.740520,-0.166939,0.103920,-0.072345
16.520,63940,9.528923,0.732626,4.999093,-0.045432,0.043966,-0.120708
16.540,63960,10.160992,0.407014,5.008670,-0.087133,-0.087666,-0.251141
16.560,63980,11.066000,-0.062249,4.740520,-0.143623,-0.248210,-0.166539
16.580,64000,10.433931,0.287304,4.936844,-0.306299,-0.292043,-0.168538
16.600,64020,9.935937,0.301669,5.195418,-0.443926,-0.215701,-0.199714
16.620,64040,9.821015,0.588974,5.027823,-0.535190,-0.115245,-0.163075
16.640,64060,9.854534,1.115698,4.754885,-0.552510,-0.094194,-0.058888
16.660,64080,10.050858,1.053449,4.678270,-0.506678,0.035972,0.036639
16.680,64100,10.606314,1.120486,5.765238,-0.330946,0.095527,0.120574
16.700,64120,12.387600,0.919373,5.142745,-0.356127,0.347201,0.255804
16.720,64140,10.912771,1.273715,5.693412,-0.276322,0.373447,0.369051
16.740,64160,10.678140,0.622492,5.544971,-0.200380,0.489758,0.369184
16.760,64180,9.294291,0.766145,5.865794,-0.221297,0.525198,0.353596
16.780,64200,7.967903,0.028730,5.420473,-0.247943,0.477634,0.336809
16.800,64220,7.599196,-0.057461,5.372589,-0.225161,0.390501,0.249276
16.820,64240,7.819463,-0.459687,5.123591,-0.181328,0.357992,0.242747
16.840,64260,8.197746,-0.129287,5.439626,-0.147221,0.187057,0.282583
16.860,64280,9.375694,-0.349553,5.626374,0.024914,0.188256,0.419012
16.880,64300,9.811439,0.464475,6.110003,0.175599,0.154149,0.450588
16.900,64320,9.940725,1.058237,6.646304,0.367185,0.045832,0.241015
16.920,64340,10.170568,0.703895,6.842628,0.494155,-0.049695,-0.025047
16.940,64360,10.515334,0.287304,6.813898,0.535989,-0.155214,-0.242614
16.960,64380,10.491392,1.182736,6.397307,0.529328,-0.182660,-0.426740
16.980,64400,9.974244,1.029507,6.014235,0.557706,-0.362389,-0.617394
17.000,64420,9.394848,0.306458,5.401319,0.483096,-0.561037,-0.689338
17.020,64440,8.839393,0.545878,4.774038,0.401559,-0.633648,-0.646172
17.040,64460,8.202535,0.656011,4.400543,0.423542,-0.565567,-0.459914
17.060,64480,7.814674,0.057461,4.256891,0.360124,-0.468974,-0.162142
17.080,64500,8.073248,0.038307,4.223372,0.248476,-0.356394,0.040236
17.100,64520,7.766790,0.842759,4.127604,0.210772,-0.181194,0.126969
17.120,64540,8.192958,0.536301,4.395754,0.194651,-0.075142,0.132832
17.140,64560,8.389283,0.651223,4.323928,0.207841,-0.035173,0.192519
17.160,64580,8.303091,0.866701,4.458004,0.214902,0.039836,0.221297
17.180,64600,8.183381,1.412579,4.946421,0.269527,0.110182,0.178397
17.200,64620,8.705317,1.589750,4.994305,0.359458,0.154681,0.063551
17.220,64640,9.313444,1.460463,4.831499,0.459115,0.126969,-0.019985
17.240,64660,9.433155,1.498770,5.013458,0.521334,0.070746,-0.049962
17.260,64680,9.504981,1.273715,5.511452,0.566499,0.070080,-0.059021
17.280,64700,10.007763,0.943315,5.731719,0.566100,0.125371,-0.014655
17.300,64720,9.821015,0.770933,5.793968,0.542917,0.189588,0.083669
17.320,64740,9.634268,0.742203,5.841852,0.487760,0.288579,0.179995
17.340,64760,9.667787,0.804452,5.865794,0.422077,0.330147,0.250208
17.360,64780,9.825804,1.110910,6.229713,0.379576,0.326550,0.290844
17.380,64800,10.625467,1.115698,6.866570,0.220498,0.275655,0.305899
17.400,64820,11.089942,1.168370,5.813122,0.332812,0.380375,0.448190
17.420,64840,11.032481,0.991199,6.177041,0.351730,0.301636,0.456184
17.440,64860,10.668563,1.125275,5.655105,0.269793,0.210905,0.417680
17.460,64880,10.251971,0.718261,5.137957,0.311628,0.083136,0.370116
17.480,64900,10.204087,0.047884,4.515464,0.255005,-0.114046,0.375312
17.500,64920,9.854534,-0.311246,4.395754,0.116311,-0.385305,0.398095
17.520,64940,9.299079,-0.296881,4.769250,0.002798,-0.612198,0.423009
17.540,64960,9.212888,-0.090980,4.472369,-0.092462,-0.725844,0.478433
17.560,64980,9.279925,0.268151,4.204218,-0.069280,-0.854012,0.520668
17.580,65000,9.318233,0.881066,4.505888,-0.025847,-0.758752,0.453119
17.600,65020,10.074800,1.374272,4.544195,0.010126,-0.569830,0.292309
17.620,65040,10.070012,1.929727,4.419696,0.153349,-0.456184,0.048763
17.640,65060,9.457097,1.862689,4.185065,0.281118,-0.257802,-0.246877
17.660,65080,9.390059,1.235408,4.079720,0.325217,-0.096726,-0.471505
17.680,65100,9.433155,0.526724,4.022259,0.297505,0.017853,-0.578757
17.700,65120,8.595184,0.158017,3.945644,0.219698,0.140026,-0.603404
17.720,65140,8.178593,0.028730,3.921702,0.045698,0.342804,-0.559704
17.740,65160,7.905654,0.067038,3.849876,-0.108983,0.421144,-0.499084
17.760,65180,8.164227,0.081403,3.878607,-0.213303,0.442194,-0.395697
17.780,65200,8.240842,0.263362,4.333505,-0.257270,0.417547,-0.266462
17.800,65220,8.216900,0.761356,4.649539,-0.299504,0.444459,-0.192253
17.820,65240,9.121908,0.737414,4.620809,-0.323352,0.417280,-0.186923
17.840,65260,9.461885,0.263362,4.735731,-0.320421,0.271126,-0.202378
17.860,65280,9.600749,0.095768,4.716578,-0.421810,0.188922,-0.140692
17.880,65300,9.543288,0.694318,4.793192,-0.474570,0.071678,-0.092196
17.900,65320,9.567230,1.015141,5.224148,-0.457649,-0.032508,-0.131766
17.920,65340,10.127473,0.708684,5.525817,-0.527063,0.043300,-0.183193
17.940,65360,10.453085,0.258574,5.530606,-0.603937,0.025047,-0.187856
17.960,65380,10.376471,0.220267,5.473145,-0.715452,-0.000266,-0.104853
17.980,65400,9.916783,0.469264,5.607220,-0.762216,0.065150,0.018253
18.000,65420,9.844957,0.847547,5.439626,-0.776871,0.136562,0.124038
18.020,65440,10.079589,1.106121,5.281609,-0.708790,0.124438,0.165074
18.040,65460,9.902418,1.077391,5.109226,-0.630450,0.055957,0.118576
18.060,65480,9.710882,0.502782,5.559336,-0.597675,0.015988,0.042767
18.080,65500,11.209652,-1.082179,6.684611,-0.757819,-0.013856,0.091263
18.100,65520,11.271901,-0.421380,6.181829,-0.911568,0.116844,0.220098
18.120,65540,10.472239,0.349553,6.579266,-0.989642,0.161343,0.167871
18.140,65560,9.782708,1.393425,5.722142,-0.891583,0.158279,0.119242
18.160,65580,8.259995,2.422932,5.046977,-0.651368,0.159345,-0.116178
18.180,65600,7.105990,2.882619,5.109226,-0.344802,0.137361,-0.429005
18.200,65620,6.962338,2.341529,5.602432,-0.078873,0.089931,-0.700663
18.220,65640,8.264784,1.063026,5.918467,0.030776,0.133231,-0.763148
18.240,65660,9.758766,0.785298,5.880159,-0.003864,0.217700,-0.666023
18.260,65680,9.907207,1.345541,6.215348,-0.028645,0.124438,-0.681611
18.280,65700,9.844957,1.450886,6.339846,-0.038371,0.036905,-0.764214
18.300,65720,9.562442,1.704672,6.148310,-0.087533,-0.030910,-0.807381
18.320,65740,9.026140,1.728614,6.033388,-0.135763,-0.056890,-0.844553
18.340,65760,9.222465,1.628057,5.975927,-0.176398,-0.140026,-0.759951
18.360,65780,9.519346,1.632846,5.664681,-0.215701,-0.227159,-0.615662
18.380,65800,9.662998,1.805228,5.324705,-0.303368,-0.307631,-0.473637
18.400,65820,9.255983,2.097321,5.291186,-0.343737,-0.436865,-0.415149
18.420,65840,8.810662,1.982399,5.219360,-0.376245,-0.499484,-0.419545
18.440,65860,8.279149,1.647211,4.941632,-0.421810,-0.492023,-0.354795
18.460,65880,8.039729,1.450886,4.778827,-0.477368,-0.497752,-0.271658
18.480,65900,8.303091,1.388637,4.635174,-0.564767,-0.511075,-0.222363
18.500,65920,8.494628,1.589750,4.606444,-0.640576,-0.507478,-0.239150
18.520,65940,8.513782,1.551443,4.654328,-0.753423,-0.429005,-0.319089
18.540,65960,8.456321,1.350330,4.505888,-0.851481,-0.358392,-0.321753
18.560,65980,8.437167,1.527501,4.472369,-0.930887,-0.284582,-0.244879
18.580,66000,8.686164,1.642422,4.558560,-0.936749,-0.153749,-0.117110
18.600,66020,9.318233,1.747767,4.611232,-0.840289,-0.027312,0.113913
18.620,66040,10.151415,1.881842,4.678270,-0.715718,0.049962,0.317090
18.640,66060,10.965444,1.685518,4.898537,-0.770876,0.023582,0.353329
18.660,66080,10.342952,1.637634,5.252879,-0.430737,-0.021184,0.391034
18.680,66100,9.739613,1.431733,5.425261,-0.388769,0.075942,0.351730
18.700,66120,9.581595,1.335965,5.506664,-0.340939,0.087000,0.306698
18.720,66140,10.074800,1.484405,6.157887,-0.265263,0.086867,0.261933
18.740,66160,11.587936,1.221043,5.564125,-0.306165,0.138294,0.255005
18.760,66180,11.128249,1.316811,5.477933,-0.085002,0.048629,0.250342
18.780,66200,10.884041,0.938527,5.286397,-0.003198,-0.073943,0.232755
18.800,66220,9.974244,0.981623,5.080496,0.039037,-0.090730,0.221031
18.820,66240,9.514558,0.770933,4.721366,0.069014,-0.138294,0.184525
18.840,66260,9.308656,0.560243,4.247314,0.072345,-0.194251,0.155348
18.860,66280,9.165004,0.201113,4.113238,0.061819,-0.270060,0.137761
18.880,66300,9.011775,0.004788,4.094085,0.029844,-0.286580,0.211571
18.900,66320,9.241618,0.234632,4.252102,0.025181,-0.288979,0.321487
18.920,66340,9.639056,0.258574,4.606444,0.089665,-0.306965,0.344003
18.940,66360,10.127473,-0.205901,4.975151,0.083936,-0.375046,0.305233
18.960,66380,10.213664,0.311246,4.505888,-0.032908,-0.283649,0.205976
18.980,66400,9.117120,2.303222,4.553771,0.046231,-0.251674,-0.046498
19.000,66420,8.293514,2.729390,4.563348,0.261266,-0.117910,-0.348666
19.020,66440,8.441956,1.886631,4.496311,0.393165,0.109383,-0.534257
19.040,66460,8.686164,1.254562,4.271256,0.417014,0.238484,-0.636179
19.060,66480,8.513782,0.962469,4.165911,0.314159,0.355461,-0.720115
19.080,66500,8.796297,1.091756,4.127604,0.187057,0.429271,-0.732505
19.100,66520,8.734048,1.264138,4.218584,0.171735,0.463778,-0.656164
19.120,66540,8.920795,1.110910,4.175488,0.122306,0.504946,-0.522266
19.140,66560,9.102755,0.627281,4.276044,0.083536,0.418879,-0.368917
19.160,66580,9.236830,0.521936,4.458004,-0.031443,0.307098,-0.245412
19.180,66600,9.255983,0.804452,4.400543,-0.162942,0.211971,-0.162809
19.200,66620,9.217676,1.211466,4.309563,-0.258602,0.130300,-0.137495
19.220,66640,9.289502,1.364695,4.261679,-0.326017,0.041968,-0.181328
19.240,66660,9.466674,1.359907,4.525041,-0.383839,-0.027046,-0.240882
19.260,66680,9.892841,1.470040,4.577713,-0.636179,0.080871,-0.289245
19.280,66700,9.710882,1.264138,4.644751,-0.647504,0.009060,-0.324551
19.300,66720,10.108319,1.010353,4.955997,-0.502548,-0.047830,-0.270326
19.320,66740,9.864111,0.981623,5.190629,-0.502548,-0.011591,-0.179729
19.340,66760,9.935937,1.110910,5.281609,-0.715851,0.015721,-0.139227
19.360,66780,10.553641,1.168370,5.142745,-0.598208,-0.002265,-0.075942
19.380,66800,10.280702,1.359907,4.845864,-0.650035,-0.081538,-0.100856
19.400,66820,10.113108,1.628057,5.104438,-0.622989,-0.210505,-0.166406
19.420,66840,11.214440,1.268927,6.196194,-0.905839,-0.219432,-0.313227
19.440,66860,10.898406,1.671153,5.736507,-0.871066,-0.160677,-0.434467
19.460,66880,9.940725,1.814805,6.478710,-0.753689,0.038104,-0.600340
19.480,66900,8.801085,1.441309,6.229713,-0.873730,0.082737,-0.886387
19.500,66920,8.734048,1.374272,5.679047,-0.986444,0.265263,-0.958865
19.520,66940,8.236053,1.589750,5.128380,-0.921161,-0.116977,-0.932086
19.540,66960,7.551312,1.719037,5.185841,-0.718516,-0.163608,-0.824168
19.560,66980,8.231265,1.335965,5.276821,-0.707991,-0.065417,-0.709190
19.580,67000,9.035717,1.364695,5.377377,-0.733172,0.055158,-0.549712
19.600,67020,9.236830,2.082955,5.607220,-0.769410,0.178663,-0.485361
19.620,67040,9.447520,2.734178,5.942409,-0.654165,0.215302,-0.541319
19.640,67060,9.375694,2.892196,5.995081,-0.660427,0.366919,-0.696933
19.660,67080,8.489840,3.169923,5.975927,-0.553576,0.322020,-0.820971
19.680,67100,8.274361,3.078943,6.191406,-0.412750,0.265663,-0.932752
19.700,67120,8.599973,2.767697,5.971139,-0.338008,0.317757,-0.962729
19.720,67140,8.619126,2.681506,5.559336,-0.329081,0.368118,-0.932485
19.740,67160,8.461109,2.686294,5.276821,-0.289778,0.253939,-0.898245
19.760,67180,8.159439,2.466028,5.286397,-0.316557,0.172401,-0.805782
19.780,67200,8.106767,2.552219,5.295974,-0.338141,0.028245,-0.645905
19.800,67220,7.963115,2.542642,5.353435,-0.250208,-0.144289,-0.586617
19.820,67240,7.829040,2.571373,5.099649,-0.266995,-0.022516,-0.500816
19.840,67260,8.063671,2.710236,4.951209,-0.203577,0.013323,-0.370116
19.860,67280,7.948750,3.131616,5.200206,-0.084069,-0.130700,-0.257802
19.880,67300,7.594408,3.327940,5.482722,0.025980,-0.086201,-0.206375
19.900,67320,7.417237,3.260903,5.707777,0.115511,0.139626,-0.196649
19.920,67340,7.800309,3.251326,6.009446,0.143490,0.226493,-0.230890
19.940,67360,8.590396,3.222595,6.148310,0.110449,0.172934,-0.284449
19.960,67380,8.403648,3.390190,6.315904,0.100723,0.186524,-0.290844
19.980,67400,8.523358,3.696647,6.325481,0.102322,0.260867,-0.232222
20.000,67420,9.088389,3.730166,6.191406,0.184658,0.216900,-0.122440
20.020,67440,8.992621,3.529053,6.177041,0.259002,0.152417,0.034640
20.040,67460,8.465898,3.318364,6.153099,0.251008,0.241149,0.213170
20.060,67480,8.125920,3.232172,6.359000,0.230224,0.130966,0.322953
20.080,67500,8.154651,3.572149,6.354211,0.128168,0.160410,0.424341
20.100,67520,9.840169,4.414908,6.459556,0.383440,0.084335,0.622856
20.120,67540,9.701305,5.353435,5.726931,0.634714,0.194518,0.832962
20.140,67560,10.098742,5.980716,6.014235,1.191221,0.258335,1.058922
20.160,67580,9.466674,5.774815,5.516241,1.666989,0.439530,1.219732
20.180,67600,9.169792,5.770026,5.075707,2.109717,0.480032,1.487926
20.200,67620,8.844181,5.382165,4.750096,2.489825,0.369583,1.607168
20.220,67640,8.240842,4.501099,4.932055,2.759086,0.354928,1.684709
20.240,67660,7.958326,3.327940,5.324705,2.844354,0.395297,1.699631
20.260,67680,7.565677,2.470816,5.731719,2.688340,0.387703,1.696034
20.280,67700,7.335834,2.480393,5.837064,2.430671,0.516005,1.644740
20.300,67720,7.522582,2.968810,6.105214,2.276256,0.565833,1.505780
20.320,67740,8.494628,3.074155,5.875371,2.080006,0.705726,1.268894
20.340,67760,8.901642,3.045424,5.549759,1.654466,0.502948,0.860407
20.360,67780,9.088389,2.504335,5.698200,1.589449,0.365320,0.565034
20.380,67800,9.078813,2.312799,5.540183,1.326983,0.286314,0.339473
20.400,67820,8.710106,2.279280,5.291186,1.033608,0.159078,0.200113
20.420,67840,8.097190,2.375048,5.281609,0.783400,0.168538,0.172135
20.440,67860,8.116343,2.408567,5.003881,0.599008,0.209173,0.185591
20.460,67880,8.078036,2.604892,4.730943,0.450188,0.173867,0.184525
20.480,67900,7.905654,2.695871,4.745308,0.387303,0.155081,0.203977
20.500,67920,8.025364,2.590526,4.754885,0.328282,0.181861,0.219032
20.520,67940,8.202535,2.609680,4.726154,0.284049,0.163208,0.241681
20.540,67960,8.556877,2.691083,4.764462,0.224761,0.083403,0.223296
20.560,67980,8.537724,2.700660,4.735731,0.155881,0.028645,0.163874
20.580,68000,8.346188,2.758120,4.659117,0.127769,0.050628,0.113513
20.600,68020,8.834604,2.758120,4.740520,0.058622,-0.001199,0.056757
20.620,68040,8.738836,3.251326,4.759673,-0.274989,-0.177331,-0.001998
20.640,68060,9.552865,2.729390,4.668694,-0.512807,-0.167738,0.055957
20.660,68080,9.356541,2.987964,4.917690,-0.112580,-0.136029,0.158012
20.680,68100,9.600749,3.150769,4.841076,-0.234221,-0.077807,0.146288
20.700,68120,9.490616,2.705448,4.912902,-0.140559,-0.054891,0.182793
20.720,68140,9.370906,2.537854,4.975151,-0.125504,0.009726,0.234487
20.740,68160,9.557653,2.360683,4.797980,-0.165207,0.004796,0.289911
20.760,68180,9.619903,2.255338,4.836287,-0.168005,-0.012391,0.360657
20.780,68200,9.763555,2.360683,5.410896,-0.210639,-0.047697,0.395830
20.800,68220,10.826580,2.638410,5.511452,-0.539054,0.017720,0.317357
20.820,68240,10.606314,3.284845,5.717354,-0.313360,-0.035839,0.245145
20.840,68260,10.386047,3.002329,5.937620,-0.175865,0.209306,0.179329
20.860,68280,10.151415,2.930503,5.578490,-0.189322,0.213037,0.108717
20.880,68300,9.485827,2.547431,5.161899,-0.140426,0.254605,0.092995
20.900,68320,8.662222,2.169147,4.802769,-0.132432,0.203044,0.106452
20.920,68340,7.752425,1.790863,4.745308,-0.131632,0.157879,0.189721
20.940,68360,7.603985,1.580173,4.903325,-0.199980,0.169470,0.271792
20.960,68380,8.461109,1.422156,5.061342,-0.263931,0.172534,0.323352
20.980,68400,9.308656,1.829170,4.994305,-0.402358,0.087933,0.289511
21.000,68420,9.643845,2.437297,5.118803,-0.589548,-0.057822,0.133498
21.020,68440,9.442732,2.844312,5.372589,-0.501882,-0.137761,-0.064084
21.040,68460,9.083601,3.112462,5.473145,-0.212904,-0.122040,-0.227426
21.060,68480,9.126697,3.074155,5.439626,-0.162409,-0.134031,-0.384239
21.080,68500,9.385271,2.873042,5.339070,-0.206775,-0.188256,-0.501482
21.100,68520,9.509769,2.509123,5.003881,-0.137361,-0.171602,-0.525730
21.120,68540,8.949526,2.245761,4.884171,-0.123239,-0.252873,-0.475902
21.140,68560,8.681376,2.092532,4.821922,-0.186124,-0.266462,-0.355461
21.160,68580,8.528147,1.738190,4.587290,-0.239283,-0.265796,-0.182260
21.180,68600,8.307879,1.651999,4.429273,-0.236352,-0.283383,-0.005063
21.200,68620,8.355764,1.757344,4.333505,-0.240349,-0.288046,0.118043
21.220,68640,8.303091,1.886631,4.467580,-0.225960,-0.302035,0.167338
21.240,68660,8.140285,1.881842,4.659117,-0.205176,-0.268061,0.174533
21.260,68680,8.499416,1.690306,4.764462,-0.232622,-0.139760,0.204110
21.280,68700,9.236830,1.843535,4.616021,-0.279786,-0.123372,0.263398
21.300,68720,9.361329,2.255338,4.582502,-0.268194,-0.172401,0.270992
21.320,68740,9.337387,2.451663,4.793192,-0.223695,-0.151084,0.202645
21.340,68760,9.222465,2.260126,4.960786,-0.178796,-0.135230,0.108717
21.360,68780,9.155427,2.030283,5.018247,-0.170003,-0.073277,0.060620
21.380,68800,9.504981,1.853112,4.979939,-0.284982,-0.038637,0.028511
21.400,68820,9.921572,1.814805,5.042189,-0.195717,-0.014655,0.049029
21.420,68840,9.897630,2.049437,5.176264,-0.193319,-0.033708,0.029844
21.440,68860,9.615114,2.130840,5.094861,-0.169337,-0.010259,-0.005729
21.460,68880,9.615114,2.097321,4.908113,-0.203844,-0.023582,-0.034374
21.480,68900,9.323022,2.111686,5.238513,-0.206375,-0.118842,-0.037038
21.500,68920,10.247183,1.604115,5.688623,-0.224894,0.078074,0.078074
21.520,68940,11.463438,1.532289,5.090073,-0.604204,0.025980,0.155214
21.540,68960,11.037270,1.848324,5.315128,-0.371582,0.049828,0.224761
21.560,68980,10.572795,1.805228,4.568137,-0.484695,0.040103,0.178663
21.580,69000,10.208876,1.944092,4.209007,-0.407155,-0.016920,0.121107
21.600,69020,10.247183,1.594538,3.682282,-0.421277,-0.152017,0.064084
21.620,69040,9.844957,1.197101,3.500323,-0.454452,-0.281518,0.104054
21.640,69060,9.380483,0.790087,3.275268,-0.472971,-0.277254,0.227426
21.660,69080,9.174581,0.967257,3.323152,-0.600207,-0.333211,0.310962
21.680,69100,9.255983,1.297657,4.046201,-0.656963,-0.319755,0.298305
21.700,69120,9.667787,1.752556,4.156334,-0.651900,-0.169337,0.231556
21.720,69140,9.648633,2.451663,4.084508,-0.571828,-0.065283,0.086467
21.740,69160,9.222465,2.547431,4.161122,-0.371449,0.040236,-0.112980
21.760,69180,8.825027,2.011129,4.299986,-0.265930,0.214502,-0.249409
21.780,69200,8.590396,1.489193,4.458004,-0.195450,0.339340,-0.299504
21.800,69220,8.485051,1.201889,4.635174,-0.170802,0.435400,-0.298971
21.820,69240,8.695741,0.962469,4.711789,-0.195184,0.498951,-0.288446
21.840,69260,8.475474,0.699107,4.740520,-0.244613,0.503214,-0.244879
21.860,69280,8.231265,0.574608,4.941632,-0.270593,0.484429,-0.180528
21.880,69300,8.245630,0.593762,5.080496,-0.330547,0.448456,-0.116844
21.900,69320,8.413225,0.727837,5.324705,-0.372115,0.435533,-0.086201
21.920,69340,8.906430,0.823605,5.420473,-0.426740,0.394897,-0.086067
21.940,69360,9.097966,1.144428,5.410896,-0.466043,0.310029,-0.105386
21.960,69380,9.141062,1.508347,5.372589,-0.443926,0.243014,-0.152017
21.980,69400,9.318233,1.508347,5.329493,-0.386371,0.162276,-0.190387
22.000,69420,9.418790,1.240196,5.425261,-0.361856,0.036772,-0.196116
22.020,69440,9.734824,0.876278,5.679047,-0.446458,-0.029577,-0.140559
22.040,69460,9.811439,0.708684,5.693412,-0.413816,0.002798,-0.051827
22.060,69480,10.012551,0.871489,5.851429,-0.449256,0.066083,0.094594
22.080,69500,10.175357,1.235408,5.669470,-0.751291,-0.004796,0.160011
22.100,69520,10.184934,1.350330,5.592855,-0.482830,-0.021450,0.120041
22.120,69540,9.988609,1.383849,5.497087,-0.452453,-0.027845,0.087000
22.140,69560,9.878476,1.039083,5.434838,-0.414482,-0.002398,0.066749
22.160,69580,10.189722,0.598550,6.842628,-0.357459,-0.151217,0.102855
22.180,69600,10.893618,1.470040,5.286397,0.073410,0.115911,2.020185
22.200,69620,12.224793,-1.977611,6.402095,-2.372582,-0.556907,1.100090
22.220,69640,10.251971,-0.134075,5.827487,-0.444326,-0.000133,0.557306
22.240,69660,8.767567,0.742203,5.650316,-0.375446,0.274723,0.448590
22.260,69680,7.766790,0.900220,5.846641,-0.249542,0.293508,0.290178
22.280,69700,7.747637,0.201113,5.875371,-0.242481,0.246877,0.120974
22.300,69720,8.250419,-0.541090,5.942409,-0.225960,0.244613,0.131233
22.320,69740,9.174581,-0.603339,5.789180,-0.304567,0.280319,0.240749
22.340,69760,9.548077,-0.158017,5.966351,-0.276455,0.191853,0.259135
22.360,69780,9.873688,0.000000,6.172252,-0.221564,0.102721,0.210905
22.380,69800,9.988609,0.325611,5.985504,-0.163608,0.057156,0.129767
22.400,69820,9.433155,0.445322,6.110003,-0.057556,-0.042634,-0.024781
22.420,69840,8.863335,0.205901,5.928043,0.034374,-0.074077,-0.159211
22.440,69860,8.872911,0.028730,5.755661,0.037305,-0.111381,-0.256603
22.460,69880,8.963891,-0.062249,5.324705,-0.018919,-0.130966,-0.309230
22.480,69900,9.059659,-0.162806,4.893748,-0.076608,-0.188256,-0.283916
22.500,69920,8.781932,-0.215478,4.764462,-0.087400,-0.326150,-0.205576
22.520,69940,8.580819,-0.349553,4.639963,-0.072345,-0.353462,-0.093262
22.540,69960,8.216900,-0.469264,4.572925,-0.040769,-0.360657,-0.006795
22.560,69980,7.991845,-0.536301,4.462792,-0.021184,-0.323885,0.035573
22.580,70000,8.197746,-0.847547,4.501099,-0.027446,-0.314159,0.073544
22.600,70020,8.619126,-0.957681,4.788404,-0.038504,-0.243680,0.146954
22.620,70040,9.251195,-0.574608,4.893748,-0.087933,-0.187989,0.197315
22.640,70060,9.548077,0.292093,5.099649,0.026380,-0.187989,0.185325
22.660,70080,9.677363,0.852336,5.056554,0.130966,-0.060887,0.147487
22.680,70100,10.189722,0.598550,5.262455,0.239550,-0.046897,0.156946
22.700,70120,10.726024,0.330400,5.755661,0.444459,-0.062619,0.237285
22.720,70140,11.037270,-0.210690,5.353435,0.651501,-0.033574,0.457649
22.740,70160,10.414778,-0.220267,5.181053,0.766346,-0.125904,0.643907
22.760,70180,9.935937,-0.325611,5.094861,0.717850,-0.458049,0.712254
22.780,70200,9.313444,-0.086191,5.291186,0.636845,-0.699464,0.794991
22.800,70220,8.504205,0.588974,6.124368,0.675349,-0.592879,0.738767
22.820,70240,9.418790,-0.861913,6.315904,0.968724,-0.236752,0.758352
22.840,70260,9.710882,-0.699107,5.822699,0.940479,-0.154149,0.724778
22.860,70280,10.366894,-1.403002,6.042965,1.008694,0.117377,0.632182
22.880,70300,10.256760,-0.981623,5.401319,0.897446,0.245945,0.506678
22.900,70320,10.290278,-0.632069,4.563348,0.938881,0.260334,0.305100
22.920,70340,10.783484,-1.872266,3.265691,0.685075,0.098458,0.247943
22.940,70360,10.429143,-1.848324,2.533065,0.530660,-0.156946,0.330813
22.960,70380,9.471462,-1.474828,2.590526,0.444459,-0.528528,0.388236
22.980,70400,8.647857,-0.521936,3.447650,0.417147,-0.583819,0.310029
23.000,70420,8.571242,-0.339977,3.907337,0.323752,-0.598608,0.171735
23.020,70440,8.734048,-0.067038,4.410120,0.304167,-0.454452,0.012657
23.040,70460,9.155427,0.263362,4.668694,0.278986,-0.179995,-0.166139
23.060,70480,9.366117,0.938527,4.869806,0.405289,0.155747,-0.410619
23.080,70500,9.940725,0.924162,4.644751,0.454985,0.364387,-0.721047
23.100,70520,10.477027,0.248997,4.826711,0.362922,0.230357,-0.899977
23.120,70540,9.706094,-0.038307,5.200206,0.452054,0.011458,-0.801519
23.140,70560,9.490616,-0.114922,5.894525,0.326283,0.235819,-0.609799
23.160,70580,9.236830,-0.311246,5.784391,0.289378,0.426207,-0.431536
23.180,70600,8.954314,-0.746991,5.607220,0.128168,0.454052,-0.275389
23.200,70620,8.523358,-0.622492,5.736507,0.018386,0.487360,-0.118309
23.220,70640,8.681376,-0.670376,5.516241,-0.108983,0.526530,0.033308
23.240,70660,8.518570,-0.009577,5.640739,-0.164940,0.597675,0.066216
23.260,70680,8.810662,-0.703895,4.620809,-0.383839,0.509210,0.127502
23.280,70700,8.916007,-0.090980,5.166687,-0.315225,0.241415,0.090730
23.300,70720,9.232041,0.191536,5.157111,-0.321487,0.162942,-0.014789
23.320,70740,9.107543,0.397437,5.147533,-0.265796,0.168671,-0.142691
23.340,70760,8.963891,0.402226,5.286397,-0.253273,-0.022916,-0.355727
23.360,70780,8.374918,0.392649,5.386954,-0.111381,-0.065417,-0.528528
23.380,70800,9.457097,0.957681,4.649539,-0.103920,0.038770,-0.605403
23.400,70820,11.185710,-0.560243,4.740520,-0.570629,-0.312960,-0.629384
23.420,70840,10.568007,-1.211466,4.563348,-0.180528,-0.196250,-0.205176
23.440,70860,9.911995,-0.622492,5.348647,-0.215568,0.183326,-0.047031
23.460,70880,9.844957,-0.526724,5.343858,-0.451787,-0.080472,-0.125770
23.480,70900,10.017340,-0.148441,5.918467,-0.752090,-0.196516,-0.102055
23.500,70920,12.004527,-0.804452,6.382942,-1.433435,-0.331479,0.217433
23.520,70940,13.632585,-1.766921,5.319916,-1.593845,-0.320421,1.339640
23.540,70960,11.985373,-0.373495,6.153099,-0.703861,0.041835,0.488292
23.560,70980,10.524911,0.833182,6.253655,-0.416881,0.397562,0.322686
23.580,71000,8.963891,1.599327,5.889736,-0.229024,0.260467,0.042234
23.600,71020,8.465898,1.364695,5.966351,-0.212237,0.266995,-0.150285
23.620,71040,8.815451,0.426168,5.444415,-0.222629,0.389568,-0.163075
23.640,71060,9.059659,-0.761356,5.200206,-0.286181,0.276322,-0.030776
23.660,71080,8.729259,-1.139640,5.559336,-0.320021,0.109116,0.200646
23.680,71100,8.901642,-0.938527,5.793968,-0.349732,0.093662,0.332279
23.700,71120,8.983045,-0.641646,5.827487,-0.105786,0.156413,0.368384
23.720,71140,8.729259,-0.205901,5.995081,-0.113913,0.027979,0.201046
23.740,71160,8.571242,-0.205901,5.932832,-0.161476,-0.059554,-0.039703
23.760,71180,8.959103,0.023942,5.956774,-0.168005,-0.037838,-0.233688
23.780,71200,9.093178,0.153229,5.832275,-0.182926,-0.006928,-0.454985
23.800,71220,9.370906,-0.244209,5.583278,-0.165473,-0.182527,-0.626453
23.820,71240,9.126697,-0.181959,5.434838,-0.171735,-0.384239,-0.784599
23.840,71260,8.748413,-0.373495,5.080496,-0.177198,-0.477368,-0.841888
23.860,71280,9.351752,-0.972046,4.716578,-0.394098,-0.465643,-0.634980
23.880,71300,9.390059,-0.847547,4.730943,-0.399028,-0.506145,-0.371182
23.900,71320,8.930372,-0.775721,4.443638,-0.425940,-0.398761,-0.074476
23.920,71340,8.743625,-0.483629,4.501099,-0.369051,-0.320421,0.148286
23.940,71360,9.260772,-0.110133,4.434062,-0.197449,-0.523599,0.273790
23.960,71380,9.643845,0.057461,3.830723,-0.001599,-0.620058,0.450455
23.980,71400,10.093954,0.799663,3.160346,0.338940,-0.484162,0.754622
24.000,71420,9.878476,1.259350,3.404555,0.782867,-0.866403,0.829231
24.020,71440,8.944737,1.857901,3.931279,1.219066,-1.150851,0.704127
24.040,71460,8.528147,1.829170,3.830723,1.612098,-1.095427,0.517603
24.060,71480,10.041282,0.445322,3.490746,1.470340,-0.757553,0.304433
24.080,71500,11.295844,0.622492,3.428497,1.433302,-0.796723,0.073011
24.100,71520,11.477803,1.254562,3.667917,1.544283,-0.765680,-0.127502
24.120,71540,11.535264,1.355118,3.667917,1.788096,-0.582887,-0.324685
24.140,71560,10.175357,1.661576,4.525041,1.947175,-0.820838,-0.326417
24.160,71580,10.213664,0.588974,6.244078,2.182461,-0.736502,-0.281384
24.180,71600,10.936713,-0.608127,6.014235,1.876962,-0.455384,-0.420744
24.200,71620,11.056423,-1.690306,5.975927,1.706426,-0.077407,-0.664691
24.220,71640,10.295067,-1.853112,4.668694,1.167106,0.179196,-0.787397
24.240,71660,9.931149,-1.335965,3.926491,0.622057,0.509210,-0.654299
24.260,71680,9.979033,-0.737414,3.299210,0.126703,0.502815,-0.427806
24.280,71700,9.672575,-0.110133,2.595315,-0.033175,0.267662,-0.349599
24.300,71720,9.284714,0.296881,2.619257,-0.132565,0.143224,-0.284049
24.320,71740,9.069236,0.110133,2.676718,-0.267129,0.059821,-0.190787
24.340,71760,8.839393,0.804452,2.858677,-0.262199,0.069946,0.020518
24.360,71780,9.442732,1.532289,3.505111,-0.278453,0.096060,-0.022250
24.380,71800,8.920795,1.383849,3.471592,-0.118043,-0.133764,-0.175066
24.400,71820,9.844957,0.928950,3.524265,-0.162409,0.239683,-0.308564
24.420,71840,11.420342,0.359130,3.442862,-0.713054,0.196383,-0.310029
24.440,71860,11.310209,0.675165,3.883395,-0.626587,0.059288,-0.223162
24.460,71880,10.888829,1.192312,4.137180,-0.547447,0.094061,-0.309496
24.480,71900,10.314221,1.163582,3.888184,-0.561570,-0.051161,-0.387037
24.500,71920,9.255983,1.350330,3.821146,-0.491890,-0.039170,-0.424208
24.520,71940,8.968679,0.986411,3.519476,-0.506279,-0.062619,-0.366652
24.540,71960,8.805874,0.852336,3.169923,-0.567032,0.034640,-0.205576
24.560,71980,8.686164,0.876278,3.169923,-0.576358,0.023848,-0.059421
24.580,72000,8.825027,1.048660,2.782062,-0.729574,0.082204,0.049962
24.600,72020,8.470686,1.058237,3.299210,-0.664424,-0.016521,0.083936
24.620,72040,8.015787,1.091756,4.084508,-0.555974,0.183193,0.051294
24.640,72060,7.718906,1.316811,4.141969,-0.283383,0.464178,0.018919
24.660,72080,9.418790,1.110910,3.739743,-0.401026,0.632449,-0.123772
24.680,72100,10.055647,0.799663,3.715801,-0.252073,0.492023,-0.217567
24.700,72120,10.290278,0.459687,3.916914,-0.036905,0.864138,-0.197182
24.720,72140,11.075577,-0.153229,2.944868,-0.017187,0.895847,-0.101256
24.740,72160,11.353305,0.248997,2.695871,-0.368917,0.239417,0.047297
24.760,72180,9.777920,0.450110,4.486734,-0.372781,-0.126037,0.107651
24.780,72200,9.437943,1.005565,4.774038,-0.461913,0.268328,0.186524
24.800,72220,9.931149,0.957681,4.774038,-0.551577,0.467109,0.179329
24.820,72240,10.457873,1.417367,4.683059,-0.624988,0.367851,0.083936
24.840,72260,11.061212,1.647211,5.640739,-0.500150,0.165074,-0.058489
24.860,72280,12.899959,1.685518,6.014235,-0.840023,0.047697,-0.145888
24.880,72300,13.345281,1.345541,5.329493,-0.416081,0.175732,0.012257
24.900,72320,11.434708,1.867477,6.172252,0.000266,0.019319,-0.133631
24.920,72340,10.826580,1.417367,5.607220,0.042101,0.038104,-0.201579
24.940,72360,9.945514,1.537078,5.262455,0.019185,0.069280,-0.152017
24.960,72380,8.595184,0.995988,5.051765,0.164807,0.026779,-0.096726
24.980,72400,8.212111,0.320823,4.644751,-0.186657,0.041568,0.030377
25.000,72420,8.427590,0.392649,4.678270,-0.256603,-0.005596,0.185591
25.020,72440,8.978256,1.110910,4.716578,-0.421011,0.101522,0.223029
25.040,72460,9.208099,1.527501,5.003881,-0.329747,0.145355,0.193585
25.060,72480,9.572019,1.814805,4.879383,-0.378510,0.065683,0.062219
25.080,72500,9.634268,1.934515,4.764462,-0.204643,-0.107784,-0.094727
25.100,72520,9.241618,1.776498,4.601655,-0.061020,0.005729,-0.251541
25.120,72540,9.380483,1.829170,4.721366,0.005596,-0.121374,-0.369850
25.140,72560,9.399636,1.738190,4.778827,0.016254,-0.397828,-0.497485
25.160,72580,9.208099,1.484405,4.673482,0.083403,-0.495887,-0.512940
25.180,72600,9.064447,1.115698,4.558560,0.105119,-0.375446,-0.390767
25.200,72620,9.016563,0.857124,4.501099,-0.020784,-0.433801,-0.237551
25.220,72640,8.920795,0.809240,4.309563,-0.114979,-0.432602,-0.070879
25.240,72660,8.619126,0.866701,4.108450,-0.138294,-0.414616,0.075009
25.260,72680,8.461109,0.938527,4.022259,-0.106585,-0.270593,0.150951
25.280,72700,8.389283,0.976834,4.007894,-0.053559,-0.169470,0.168804
25.300,72720,8.504205,1.259350,4.036624,-0.068214,-0.210505,0.140292
25.320,72740,8.633492,1.541866,4.232949,-0.010126,-0.140692,0.136162
25.340,72760,8.987833,1.474828,4.189853,0.111248,-0.044766,0.148286
25.360,72780,9.160215,1.240196,4.304775,0.202645,0.009459,0.145888
25.380,72800,9.380483,1.192312,4.290410,0.223562,0.125637,0.163741
25.400,72820,9.758766,1.187524,4.247314,0.257669,0.205576,0.186923
25.420,72840,9.897630,1.192312,4.458004,0.294308,0.257802,0.183326
25.440,72860,9.849746,1.182736,4.702212,0.293242,0.349865,0.156813
25.460,72880,10.132261,1.154005,5.027823,0.278453,0.498551,0.155081
25.480,72900,9.902418,0.670376,5.133168,0.231822,0.432069,0.140292
25.500,72920,9.409213,0.306458,5.195418,0.094461,0.572894,0.272325
25.520,72940,10.266336,0.459687,6.536170,0.034773,0.496819,0.356127
25.540,72960,11.319786,0.766145,5.755661,-0.238351,0.508544,0.290711
25.560,72980,11.042058,0.560243,6.263232,-0.231822,0.479499,0.179995
25.580,73000,11.860875,0.277727,5.262455,-0.460447,0.631116,0.124971
25.600,73020,11.075577,0.565032,4.951209,-0.296706,0.308430,0.057822
25.620,73040,10.103531,0.478840,4.592079,-0.376511,0.270992,0.042767
25.640,73060,9.193734,0.502782,4.496311,-0.337741,-0.130433,0.072345
25.660,73080,8.973468,0.392649,4.654328,-0.347067,-0.261400,0.113113
25.680,73100,9.074024,0.742203,4.606444,-0.304034,-0.282051,0.149485
25.700,73120,9.390059,1.158794,4.807557,-0.246345,-0.191453,0.093262
25.720,73140,9.337387,1.359907,4.788404,-0.146021,-0.112580,-0.055957
25.740,73160,9.222465,1.426944,4.841076,-0.048096,-0.062885,-0.213436
25.760,73180,9.576807,1.355118,4.865018,0.037172,-0.020784,-0.349466
25.780,73200,10.266336,1.412579,4.625597,0.080472,-0.194118,-0.503348
25.800,73220,10.333375,1.498770,4.678270,0.164008,-0.262066,-0.626453
25.820,73240,9.672575,1.599327,4.395754,0.148420,-0.307764,-0.744096
25.840,73260,8.853758,1.106121,4.390966,0.148420,-0.347201,-0.749026
25.860,73280,8.595184,0.665588,4.381389,0.054492,-0.255138,-0.586884
25.880,73300,8.418014,0.718261,4.141969,-0.033041,-0.060753,-0.389035
25.900,73320,8.015787,0.526724,4.328717,-0.125104,-0.076075,-0.288312
25.920,73340,8.082825,0.651223,4.295198,-0.391167,0.115245,-0.174133
25.940,73360,8.480263,0.766145,4.194642,-0.469240,0.094727,-0.115911
25.960,73380,8.939949,0.948104,4.180276,-0.554508,0.065283,-0.104587
25.980,73400,9.222465,1.307234,4.165911,-0.545715,-0.036505,-0.150685
26.000,73420,9.543288,1.426944,4.520253,-0.480299,-0.076208,-0.220231
26.020,73440,10.223241,1.417367,4.505888,-0.483096,-0.097659,-0.308830
26.040,73460,10.070012,1.206678,4.352659,-0.381041,-0.220631,-0.363588
26.060,73480,9.806650,1.053449,4.371812,-0.367052,-0.182260,-0.340406
26.080,73500,9.696517,1.053449,4.395754,-0.405023,-0.163475,-0.281917
26.100,73520,9.773131,1.278504,4.319140,-0.435266,-0.063818,-0.176265
26.120,73540,9.835381,1.551443,4.299986,-0.455251,0.110582,-0.030776
26.140,73560,10.170568,1.613692,4.266468,-0.390634,0.117510,0.095394
26.160,73580,10.189722,1.762132,4.932055,-0.447257,-0.093262,0.123639
26.180,73600,11.947066,1.364695,5.339070,-0.565966,0.130167,0.203311
26.200,73620,12.172121,1.944092,5.094861,-0.105386,-0.069014,0.180395
26.220,73640,11.372458,1.972822,5.209783,0.050361,0.059021,0.067282
26.240,73660,10.716447,2.360683,5.027823,0.231023,-0.178130,-0.054891
26.260,73680,9.830592,2.293645,4.845864,0.264064,-0.178796,-0.167605
26.280,73700,9.179369,1.920150,4.558560,0.166006,-0.102455,-0.250208
26.300,73720,8.470686,1.608904,4.376601,0.103521,-0.079672,-0.241415
26.320,73740,8.403648,1.498770,4.194642,-0.132032,-0.008394,-0.156014
26.340,73760,9.054871,1.331176,4.089296,-0.215035,-0.072078,-0.024781
26.360,73780,9.466674,1.278504,4.132392,-0.277920,-0.103521,0.062086
26.380,73800,9.849746,1.527501,4.204218,-0.312028,-0.121374,0.064217
26.400,73820,9.749189,1.877054,4.333505,-0.329081,-0.199847,-0.039037
26.420,73840,9.265560,2.470816,4.491522,-0.308164,-0.106851,-0.153749
26.440,73860,9.519346,2.633622,4.563348,-0.214103,-0.125770,-0.283916
26.460,73880,9.715671,2.456451,4.501099,-0.148819,-0.189322,-0.388369
26.480,73900,9.706094,2.288857,4.367024,-0.145755,-0.132832,-0.424741
26.500,73920,9.323022,2.015918,4.319140,-0.131499,-0.118842,-0.385571
26.520,73940,9.270349,1.513135,4.376601,-0.158412,-0.137761,-0.241415
26.540,73960,8.983045,1.244985,4.285621,-0.188922,-0.191320,-0.050894
26.560,73980,8.599973,1.115698,4.367024,-0.208907,-0.166939,0.116444
26.580,74000,8.475474,1.288081,4.189853,-0.210239,-0.106319,0.235553
26.600,74020,8.628703,1.436521,4.189853,-0.198781,-0.085668,0.288046
26.620,74040,8.552089,1.474828,4.180276,-0.153482,-0.136429,0.237418
26.640,74060,8.504205,1.264138,4.228160,-0.133631,-0.102322,0.172534
26.660,74080,8.724471,1.125275,4.223372,-0.132299,-0.067015,0.156547
26.680,74100,8.987833,1.302446,4.252102,-0.116444,-0.047963,0.171335
26.700,74120,9.337387,1.680730,4.323928,-0.089265,-0.017187,0.159611
26.720,74140,9.251195,1.484405,4.625597,0.015588,-0.012923,0.133631
26.740,74160,9.576807,0.919373,4.726154,0.028245,0.093528,0.178663
26.760,74180,10.137050,0.799663,4.596867,-0.016254,0.120308,0.248077
26.780,74200,9.969456,1.043872,4.936844,0.012790,0.065816,0.316424
26.800,74220,10.070012,1.139640,4.979939,0.083669,0.133897,0.375179
26.820,74240,9.998186,1.182736,5.008670,0.108184,0.072877,0.322553
26.840,74260,9.677363,1.244985,5.109226,0.087533,0.064617,0.200513
26.860,74280,10.098742,1.412579,6.397307,0.104720,0.084868,0.093129
26.880,74300,11.736377,1.393425,5.367800,-0.096859,0.298571,0.047297
26.900,74320,11.966220,1.312023,5.884948,0.175199,0.240083,0.040636
26.920,74340,11.540052,1.268927,5.276821,0.160943,0.247144,0.022649
26.940,74360,10.400413,1.106121,5.051765,0.199580,0.203311,0.022783
26.960,74380,10.362105,0.732626,4.213795,0.064217,0.122706,0.021184
26.980,74400,9.873688,0.617704,3.711013,-0.011858,-0.041302,0.081005
27.000,74420,9.390059,0.804452,3.605668,-0.051560,-0.121374,0.239949
27.020,74440,9.050082,1.168370,3.624821,-0.019585,-0.172668,0.358658
27.040,74460,8.614338,1.393425,3.998317,0.032642,-0.203178,0.357060
27.060,74480,9.165004,1.316811,4.175488,0.058355,-0.118975,0.282983
27.080,74500,10.141838,1.455675,3.792415,0.079939,-0.102055,0.147487
27.100,74520,10.122684,1.704672,3.672705,0.140825,-0.165340,-0.030910
27.120,74540,9.773131,1.671153,3.792415,0.228625,-0.201845,-0.215835
27.140,74560,9.662998,1.000776,3.936068,0.274856,-0.266329,-0.332545
27.160,74580,9.442732,0.296881,3.873818,0.244346,-0.314959,-0.341205
27.180,74600,9.318233,0.019154,4.170700,0.180262,-0.252740,-0.240616
27.200,74620,9.112331,-0.057461,4.156334,0.062885,-0.090997,-0.098991
27.220,74640,8.786720,-0.052672,4.098873,-0.079139,-0.005329,-0.002931
27.240,74660,8.872911,0.028730,3.964798,-0.224495,0.097259,0.073410
27.260,74680,9.303867,0.363919,3.773262,-0.322553,0.139360,0.125504
27.280,74700,9.308656,0.785298,3.754108,-0.354129,0.090464,0.112714
27.300,74720,9.342175,1.149217,3.778050,-0.373980,0.127236,0.047830
27.320,74740,9.217676,1.268927,3.677494,-0.357859,0.087400,-0.070746
27.340,74760,9.327810,0.842759,3.576937,-0.383972,0.068614,-0.171735
27.360,74780,9.471462,0.339977,3.418920,-0.457250,0.004530,-0.185724
27.380,74800,9.758766,0.167594,3.409343,-0.614596,0.202645,-0.057156
27.400,74820,10.031705,-0.023942,3.232172,-0.693335,0.089265,0.077008
27.420,74840,10.836157,-0.914585,3.404555,-0.919162,-0.033308,0.239949
27.440,74860,12.756307,-2.308010,2.849100,-1.674717,-0.106452,0.603404
27.460,74880,13.508086,-1.355118,3.289633,-1.896413,-0.543184,1.197749
27.480,74900,12.239159,0.105345,4.237737,-1.719349,-0.960198,1.602505
27.500,74920,12.425907,0.684742,5.750873,-1.854446,-0.911835,1.719749
27.520,74940,13.407530,0.287304,4.754885,-1.702695,-0.801519,1.767179
27.540,74960,11.386824,0.593762,5.257667,-1.013890,-0.984046,1.658329
27.560,74980,10.290278,0.818817,4.539406,-0.919429,-0.329747,1.449289
27.580,75000,7.264008,2.130840,4.596867,0.088199,0.015455,1.183493
27.600,75020,5.358223,1.920150,4.587290,0.634314,0.861073,0.711988
27.620,75040,5.995081,0.258574,4.170700,0.426473,1.266896,0.154149
27.640,75060,7.402872,-0.823605,4.352659,0.432335,1.288080,-0.177730
27.660,75080,7.939173,-1.125275,4.884171,0.471239,1.400127,-0.461247
27.680,75100,8.700529,-1.532289,5.003881,0.440596,1.694435,-0.701462
27.700,75120,11.200075,-2.671929,4.362236,0.178397,1.621691,-0.845219
27.720,75140,14.403518,-4.443638,3.672705,-0.066083,1.063851,-0.683476
27.740,75160,12.885593,-3.462016,4.663905,0.210505,0.085668,-0.278720
27.760,75180,10.098742,-1.733402,5.817910,0.397296,-0.233288,0.082070
27.780,75200,9.390059,-0.986411,5.923255,0.317623,-0.424341,0.176798
27.800,75220,8.930372,-1.125275,5.612009,0.251141,-0.559438,0.122306
27.820,75240,7.762002,-0.933739,5.554548,0.107518,-0.473371,0.014389
27.840,75260,7.671022,-1.053449,4.721366,0.084202,-0.260467,-0.088332
27.860,75280,7.852982,-1.331176,4.525041,0.179196,-0.222230,-0.197182
27.880,75300,8.054094,-1.570596,4.491522,0.128968,-0.091130,-0.216501
27.900,75320,8.877700,-1.470040,4.371812,-0.000799,0.211571,-0.168404
27.920,75340,9.251195,-1.154005,4.620809,0.218899,-0.048096,-0.112047
27.940,75360,8.944737,-0.818817,4.927267,0.112181,-0.061686,-0.078473
27.960,75380,8.714894,-0.612916,4.797980,0.253273,-0.186524,-0.100590
27.980,75400,8.298303,-0.555455,4.845864,0.363055,-0.232089,-0.173067
28.000,75420,8.101978,-0.713472,5.166687,0.439130,0.020917,-0.241415
28.020,75440,8.652645,-1.015141,5.372589,0.319489,-0.013456,-0.311228
28.040,75460,9.610326,-0.928950,5.257667,0.295773,-0.091530,-0.342538
28.060,75480,9.753978,-0.660800,5.157111,0.043966,-0.146021,-0.396896
28.080,75500,9.677363,-0.493206,5.827487,0.066882,-0.069946,-0.401159
28.100,75520,11.396400,-0.727837,6.349423,-0.141092,0.177997,-0.320554
28.120,75540,12.291832,-0.708684,5.937620,0.109783,0.160677,-0.222363
28.140,75560,12.028469,-0.545878,6.277597,0.133231,0.157746,-0.225294
28.160,75580,12.449849,-0.718261,5.185841,0.209040,0.109516,-0.213836
28.180,75600,11.089942,-0.450110,4.826711,0.331613,-0.066882,-0.299104
28.200,75620,9.993398,-0.598550,4.400543,0.218766,-0.141625,-0.334410
28.220,75640,9.174581,-0.454898,4.352659,0.237551,-0.213436,-0.288046
28.240,75660,8.916007,-0.459687,4.419696,0.201446,-0.133764,-0.154415
28.260,75680,9.174581,-0.052672,4.276044,0.170669,-0.045832,-0.016787
28.280,75700,9.854534,0.339977,4.137180,0.177464,0.027046,-0.006262
28.300,75720,9.950302,0.785298,4.108450,0.170936,-0.033974,-0.095394
28.320,75740,9.222465,1.225831,4.299986,0.357593,0.097925,-0.220364
28.340,75760,8.863335,1.125275,4.419696,0.505479,0.151617,-0.350931
28.360,75780,8.762778,1.034295,4.510676,0.525198,0.095127,-0.439397
28.380,75800,8.777143,0.938527,4.687847,0.531459,0.110182,-0.497086
28.400,75820,8.777143,0.665588,4.745308,0.533325,0.114979,-0.540519
28.420,75840,8.609550,0.229843,4.740520,0.502415,0.148553,-0.520534
28.440,75860,8.705317,-0.220267,4.668694,0.386637,0.217966,-0.399427
28.460,75880,8.767567,-0.105345,4.276044,0.182260,0.075142,-0.260467
28.480,75900,8.743625,0.153229,4.410120,0.076475,0.007994,-0.126570
28.500,75920,8.767567,0.268151,4.371812,-0.125104,0.058888,-0.030377
28.520,75940,8.753201,0.421380,4.276044,-0.202778,-0.016121,-0.033041
28.540,75960,8.887277,0.392649,4.209007,-0.324418,-0.126836,-0.087266
28.560,75980,9.035717,0.354342,4.065354,-0.375046,-0.124438,-0.082070
28.580,76000,9.476251,0.440533,4.481946,-0.490957,-0.156547,-0.074210
28.600,76020,10.098742,0.292093,4.505888,-0.491490,-0.240216,-0.056357
28.620,76040,10.180145,0.268151,4.630386,-0.410485,-0.232222,0.009459
28.640,76060,10.395624,0.225055,4.630386,-0.423009,-0.187723,0.062352
28.660,76080,10.500969,0.277727,4.400543,-0.456850,-0.077541,0.128302
28.680,76100,10.189722,0.588974,4.209007,-0.512674,-0.111781,0.135763
28.700,76120,10.467450,0.905008,4.951209,-0.559438,-0.103787,0.093662
28.720,76140,12.363658,0.794875,6.100426,-0.797922,-0.036905,-0.002132
28.740,76160,12.459426,0.804452,5.621585,-0.469773,-0.017054,-0.018253
28.760,76180,11.664551,0.253785,6.019023,-0.511208,0.275655,-0.000400
28.780,76200,10.601525,0.593762,5.200206,-0.353729,0.328815,0.050495
28.800,76220,8.920795,1.082179,5.233725,-0.276988,0.391700,0.015188
28.820,76240,7.982268,1.244985,5.372589,-0.258069,0.397828,-0.028911
28.840,76260,8.719683,0.703895,5.319916,-0.334810,0.407554,-0.029178
28.860,76280,9.375694,0.454898,5.334281,-0.356660,0.376245,-0.053426
28.880,76300,9.308656,0.392649,5.353435,-0.399427,0.328282,-0.049162
28.900,76320,9.868899,0.574608,5.861006,-0.436332,0.205976,-0.063018
28.920,76340,10.386047,0.814029,5.870583,-0.358259,0.072078,-0.119242
28.940,76360,9.672575,1.072602,5.401319,-0.327749,0.122839,-0.192652
28.960,76380,9.299079,1.201889,5.382165,-0.263265,-0.050628,-0.308430
28.980,76400,9.217676,1.412579,5.209783,-0.157879,-0.180129,-0.400893
29.000,76420,9.021352,1.149217,5.099649,-0.153749,-0.189988,-0.453919
29.020,76440,8.767567,0.847547,5.200206,-0.047164,-0.143490,-0.355061
29.040,76460,8.561666,0.464475,4.802769,-0.045698,-0.209440,-0.228625
29.060,76480,8.552089,0.402226,4.716578,-0.086067,-0.242481,-0.078340
29.080,76500,8.432379,0.253785,4.783615,-0.201845,-0.210106,0.028112
29.100,76520,8.379706,0.507571,4.879383,-0.225028,-0.164674,0.067282
29.120,76540,7.972692,1.714248,5.070919,-0.132432,-0.148553,0.655231
29.140,76560,8.623915,0.622492,5.142745,-0.436732,-0.417547,0.274590
29.160,76580,8.724471,0.416591,4.874595,0.204510,-0.346534,-0.027712
29.180,76600,9.294291,0.507571,4.448427,0.191986,-0.218632,0.007061
29.200,76620,9.088389,0.445322,4.754885,0.224761,-0.192386,0.053026
29.220,76640,9.141062,0.459687,5.104438,0.303900,-0.144156,0.087400
29.240,76660,9.188946,0.608127,5.090073,0.141758,-0.054758,0.113247
29.260,76680,9.284714,0.794875,5.329493,0.038237,0.015322,0.104853
29.280,76700,9.485827,0.742203,5.339070,0.062352,0.019718,0.112314
29.300,76720,9.773131,1.163582,5.679047,0.048496,0.034374,0.097925
29.320,76740,10.979809,1.513135,6.751649,0.002665,0.022783,0.074343
29.340,76760,11.338940,0.967257,6.124368,-0.130700,-0.005462,0.407421
29.360,76780,11.750742,0.555455,6.028600,0.274190,0.127902,0.184126
29.380,76800,11.664551,0.368707,5.329493,0.335609,0.113646,0.123639
29.400,76820,11.013328,0.531513,4.630386,0.275789,0.022250,0.112847
29.420,76840,9.926360,0.541090,3.969586,0.241548,-0.040769,0.121507
29.440,76860,9.346964,0.000000,3.758897,0.167738,-0.223029,0.226626
29.460,76880,9.758766,-0.665588,3.701436,0.095127,-0.386770,0.377711
29.480,76900,9.849746,-0.229843,3.337517,0.065150,-0.480565,0.569430
29.500,76920,9.955091,0.186748,3.744531,0.094194,-0.540919,0.593678
29.520,76940,10.481815,0.339977,3.677494,0.151750,-0.490158,0.557573
29.540,76960,10.041282,1.082179,3.591303,0.227959,-0.420744,0.459115
29.560,76980,8.983045,1.139640,3.912126,0.322686,-0.369450,0.248210
29.580,77000,8.183381,1.086968,4.237737,0.422876,-0.142557,0.077541
29.600,77020,8.097190,1.163582,4.242526,0.503214,0.157213,-0.079273
29.620,77040,8.188169,0.842759,4.314352,0.536655,0.378243,-0.262199
29.640,77060,9.069236,-0.292093,4.299986,0.447657,0.533991,-0.362789
29.660,77080,9.753978,-1.436521,4.070143,0.270193,0.555308,-0.213170
29.680,77100,9.476251,-1.230620,4.223372,0.166406,0.457250,0.010925
29.700,77120,9.404425,-1.015141,4.256891,0.027712,0.319755,0.159345
29.720,77140,9.097966,-0.995988,4.472369,-0.111381,0.163741,0.223429
29.740,77160,8.973468,-0.675165,4.419696,-0.285115,0.070879,0.223562
29.760,77180,9.524135,-0.627281,4.223372,-0.439130,-0.154681,0.142424
29.780,77200,9.940725,-0.871489,3.840300,-0.609400,-0.425141,0.059821
29.800,77220,10.156203,-0.684742,3.600879,-0.758752,-0.448590,0.100856
29.820,77240,10.778696,-0.210690,3.213019,-0.725311,-0.498418,0.209440
29.840,77260,10.955867,-0.531513,3.256114,-0.477767,-0.841755,0.273391
29.860,77280,9.935937,-0.684742,3.423708,-0.428205,-0.790328,0.358792
29.880,77300,9.414001,-1.168370,3.548207,-0.424475,-0.759285,0.406222
29.900,77320,9.265560,-1.661576,3.198653,-0.512407,-0.673351,0.477634
29.920,77340,9.184157,-1.651999,3.552995,-0.783400,-0.355861,0.502015
29.940,77360,10.084377,-1.599327,5.913678,-1.201746,-0.100989,0.359058
29.960,77380,11.554418,-2.825158,5.118803,-1.252640,0.667089,0.415948
29.980,77400,11.812991,-1.805228,6.100426,-1.409986,1.244646,0.388636
30.000,77420,12.488156,-1.618480,5.286397,-1.357626,1.403058,0.191986
30.020,77440,11.836933,0.038307,4.812346,-1.263965,1.313260,-0.038237
30.040,77460,10.141838,0.435745,4.884171,-0.984312,1.052527,-0.305100
30.060,77480,9.255983,-0.574608,5.023035,-0.779936,0.619392,-0.521734
30.080,77500,9.255983,-2.035071,4.855441,-0.831496,0.216900,-0.582221
30.100,77520,9.509769,-2.786851,4.558560,-0.949805,0.091130,-0.391034
30.120,77540,9.763555,-2.303222,4.841076,-1.206942,0.062619,-0.187723
30.140,77560,9.773131,-1.513135,5.171476,-1.255704,-0.037038,-0.135363
30.160,77580,9.452309,-0.972046,4.821922,-1.080239,-0.323619,-0.161476
30.180,77600,8.647857,-0.593762,5.185841,-1.067449,-0.208773,-0.243413
30.200,77620,8.604761,-0.579397,4.927267,-0.984446,-0.055691,-0.315625
30.220,77640,8.887277,-0.043096,4.788404,-0.834028,-0.183593,-0.481897
30.240,77660,8.935161,0.248997,4.697424,-0.806848,-0.325084,-0.807648
30.260,77680,9.141062,0.081403,4.601655,-0.847750,-0.245145,-1.141925
30.280,77700,9.950302,-1.470040,3.734955,-0.814842,-0.160810,-1.231190
30.300,77720,10.548853,-1.766921,3.150769,-0.984845,-0.398228,-1.038005
30.320,77740,9.725247,-1.541866,3.643975,-1.145922,-0.549446,-0.789395
30.340,77760,8.140285,-0.847547,4.055778,-1.136462,-0.316025,-0.607268
30.360,77780,6.818686,-0.143652,4.395754,-1.068248,0.043167,-0.459781
30.380,77800,7.584831,0.871489,4.046201,-0.893449,0.306698,-0.488026
30.400,77820,9.160215,0.531513,3.390190,-0.881591,0.450855,-0.533058
30.420,77840,9.442732,0.158017,3.351882,-0.719582,0.286580,-0.451121
30.440,77860,8.796297,0.411803,4.304775,-0.428871,0.330280,-0.282317
30.460,77880,9.016563,0.541090,4.793192,-0.191986,0.403691,-0.122839
30.480,77900,9.639056,0.435745,5.209783,0.176798,0.413949,-0.030377
30.500,77920,10.113108,0.052672,5.343858,0.442061,0.378377,0.057822
30.520,77940,10.381259,-0.699107,5.123591,0.595544,0.217567,0.135363
30.540,77960,9.897630,-1.201889,5.276821,0.561570,0.132965,0.302435
30.560,77980,10.333375,-1.029507,5.224148,0.403824,0.060620,0.453386
30.580,78000,11.731588,-1.029507,6.497863,0.345335,-0.117243,0.530127
30.600,78020,11.382035,-0.593762,6.167464,0.411418,-0.295640,0.572761
30.620,78040,12.291832,-1.168370,5.712565,0.629651,-0.113779,0.635247
30.640,78060,12.004527,-1.154005,4.874595,0.687340,-0.336409,0.663758
30.660,78080,11.334151,-0.617704,4.529830,0.643374,-0.281784,0.591680
30.680,78100,10.965444,-0.622492,4.228160,0.681478,-0.395297,0.401026
30.700,78120,10.783484,-0.991199,3.605668,0.685075,-0.460314,0.238617
30.720,78140,10.630256,-1.436521,3.586514,0.713453,-0.670286,0.074609
30.740,78160,9.342175,-1.034295,3.562572,0.620591,-0.501349,-0.096060
30.760,78180,9.318233,-1.699883,3.122039,0.561436,-0.552110,-0.010658
30.780,78200,8.638280,-1.364695,4.050989,0.463778,-0.334011,0.143623
30.800,78220,7.881712,-0.588974,4.031836,0.313760,-0.066882,0.230224
30.820,78240,7.110779,0.612916,4.836287,0.332145,0.255671,0.040636
30.840,78260,7.752425,0.651223,4.534618,0.401825,0.636312,-0.381175
30.860,78280,9.174581,-0.138864,3.821146,0.321753,0.783400,-0.565567
30.880,78300,10.620679,-1.316811,3.356671,0.162009,0.576092,-0.446591
30.900,78320,10.998962,-1.144428,3.706224,0.117377,0.229158,-0.192519
30.920,78340,10.984597,-1.709460,3.648763,-0.103121,0.011058,0.087266
30.940,78360,9.021352,-1.288081,3.845088,-0.067149,0.087533,0.315358
30.960,78380,8.135497,-0.387861,4.089296,-0.220364,-0.032908,0.262066
30.980,78400,8.734048,-0.488417,3.835511,-0.443793,-0.067815,0.172268
31.000,78420,9.054871,-0.857124,3.931279,-0.553443,-0.194384,0.165473
31.020,78440,8.638280,-0.665588,4.137180,-0.613663,-0.136562,0.089665
31.040,78460,8.805874,-0.732626,3.696647,-0.599141,-0.058089,-0.017320
31.060,78480,9.548077,-0.215478,3.907337,-0.541319,-0.202245,-0.147887
31.080,78500,10.333375,-1.077391,3.361459,-0.438597,-0.167205,-0.172002
31.100,78520,10.170568,-1.225831,3.150769,-0.189988,-0.029044,-0.081005
31.120,78540,11.118672,-2.159570,2.547431,-0.346934,-0.139626,0.148020
31.140,78560,10.955867,-2.006341,2.394202,-0.483496,-0.257802,0.262599
31.160,78580,9.773131,-1.235408,2.882619,-0.597142,-0.309629,0.266329
31.180,78600,10.692505,-1.532289,4.141969,-0.593678,-0.330413,0.271392
31.200,78620,13.014880,-2.063802,4.869806,-0.802851,-0.117910,0.281518
31.220,78640,13.656527,-1.604115,4.908113,-0.650968,0.114446,0.505746
31.240,78660,13.369223,-0.737414,4.118027,-0.503348,0.230623,0.518536
31.260,78680,11.281479,0.196325,3.864242,-0.068214,0.037571,0.447390
31.280,78700,8.930372,0.363919,4.453215,0.225161,-0.087533,0.320688
31.300,78720,8.470686,-0.134075,4.869806,0.341205,0.003064,0.206508
31.320,78740,9.514558,-1.197101,4.314352,0.411018,0.135629,0.124971
31.340,78760,10.304645,-1.991976,3.768473,0.413550,0.252340,0.167072
31.360,78780,9.682152,-1.963245,4.122815,0.451787,0.140026,0.219032
31.380,78800,9.289502,-1.666364,4.419696,0.535989,0.272058,0.215168
31.400,78820,8.489840,-1.666364,4.577713,0.710389,0.306032,0.082870
31.420,78840,8.571242,-0.804452,4.328717,0.717184,0.347334,-0.149352
31.440,78860,10.113108,-1.565808,3.691859,0.518270,0.210372,-0.308830
31.460,78880,10.998962,-1.905785,3.629610,0.614462,0.023848,-0.194118
31.480,78900,9.955091,-1.479617,3.576937,0.518136,0.224894,-0.090064
31.500,78920,9.074024,-0.976834,3.696647,0.338541,0.109116,-0.032109
31.520,78940,9.002198,-0.713472,4.285621,0.393965,-0.079539,-0.087533
31.540,78960,8.446744,-1.139640,4.323928,0.440462,0.007594,-0.100856
31.560,78980,8.609550,-1.407791,4.333505,0.424075,0.060620,-0.068747
31.580,79000,8.604761,-1.728614,4.453215,0.396096,0.060487,-0.070613
31.600,79020,8.743625,-1.537078,4.553771,0.276721,0.166939,-0.007194
31.620,79040,8.298303,-1.316811,4.175488,0.173734,0.263398,0.060620
31.640,79060,8.259995,-1.197101,4.012682,-0.009060,0.214902,0.079539
31.660,79080,7.814674,-1.192312,4.228160,-0.060221,0.077141,0.086467
31.680,79100,7.915231,-1.288081,5.195418,-0.100856,0.055424,0.148420
31.700,79120,8.374918,-1.326388,5.468357,-0.015721,0.102188,0.143490
31.720,79140,8.245630,-0.363919,5.434838,0.083403,0.252207,0.073410
31.740,79160,9.471462,-1.446098,5.137957,0.104720,0.273124,0.125104
31.760,79180,10.352529,-1.877054,4.750096,0.084202,0.263265,0.411818
31.780,79200,11.769896,-2.212242,6.904878,-0.215035,-0.001066,0.569164
31.800,79220,12.823344,-3.576937,6.440403,-0.055025,0.085002,0.910369
31.820,79240,12.320562,-1.709460,7.311892,0.107917,0.322686,0.947807
31.840,79260,13.350069,-2.226608,6.421249,0.130167,0.152017,0.666956
31.860,79280,12.966996,-1.426944,4.927267,-0.066349,-0.227959,0.435933
31.880,79300,12.397177,-1.695095,4.151546,-0.075276,-0.779136,0.016387
31.900,79320,11.616667,-2.533065,3.126827,-0.104986,-1.361757,-0.084202
31.920,79340,9.830592,-1.723825,3.332729,-0.100323,-1.484596,0.054225
31.940,79360,8.872911,-0.306458,3.193865,-0.093528,-1.398262,0.051427
31.960,79380,8.240842,-0.512359,4.410120,0.295507,-1.562802,-0.095793
31.980,79400,9.749189,-1.546654,3.825934,0.377311,-1.143524,0.031443
32.000,79420,8.930372,-0.656011,3.361459,0.231556,-0.550911,0.176931
32.020,79440,7.498640,0.560243,3.509900,0.287913,-0.041701,-0.147087
32.040,79460,7.647080,1.110910,4.429273,0.508810,0.322686,-0.507744
32.060,79480,7.857770,0.675165,3.605668,0.749959,0.743297,-0.754222
32.080,79500,9.112331,-0.196325,2.892196,0.825234,0.894381,-0.753556
32.100,79520,10.041282,-1.656788,2.911349,0.627519,0.869334,-0.471905
32.120,79540,9.418790,-1.762132,3.260903,0.671352,0.637245,-0.156946
32.140,79560,8.877700,-1.532289,4.242526,0.638444,0.457383,-0.042767
32.160,79580,8.796297,-2.949656,3.744531,0.599407,0.186257,0.018119
32.180,79600,8.786720,-2.796427,4.314352,0.181994,0.065150,0.157613
32.200,79620,8.513782,-1.877054,4.141969,-0.008926,0.146021,0.117110
32.220,79640,9.399636,-1.345541,4.266468,-0.286047,0.167871,-0.007194
32.240,79660,9.797073,-1.455675,4.094085,-0.280585,0.138960,-0.041968
32.260,79680,9.270349,-1.000776,3.663129,-0.523066,0.199047,-0.099923
32.280,79700,9.835381,-1.139640,3.864242,-0.616727,0.077008,-0.150818
32.300,79720,10.232818,-1.738190,3.505111,-0.670686,-0.164940,-0.121107
32.320,79740,10.218452,-1.350330,3.739743,-0.590747,-0.076208,0.036905
32.340,79760,10.548853,-1.651999,3.663129,-0.604870,-0.035173,0.169737
32.360,79780,10.055647,-1.680730,3.581726,-0.526796,-0.066349,0.313093
32.380,79800,10.204087,-1.613692,3.825934,-0.520135,-0.146554,0.406355
32.400,79820,10.529699,-2.279280,4.592079,-0.475502,-0.140959,0.560637
32.420,79840,12.186486,-2.868254,5.573701,-0.481098,-0.004263,0.646172
32.440,79860,13.895947,-2.135628,5.444415,-0.516404,0.070080,0.625121
32.460,79880,13.488933,-2.858677,6.200983,-0.329214,0.182527,0.674417
32.480,79900,12.009315,-2.437297,5.281609,-0.133498,0.067948,0.846951
32.500,79920,8.599973,-1.446098,5.592855,0.246078,-0.065816,0.769544
32.520,79940,6.689400,-1.709460,5.554548,0.035972,0.285515,0.473904
32.540,79960,7.484274,-3.198653,4.855441,-0.217433,0.479632,0.358259
32.560,79980,8.834604,-2.705448,4.362236,-0.381308,0.397695,0.228358
32.580,80000,9.849746,-1.608904,3.691859,-0.512807,0.233554,-0.070479
32.600,80020,10.735600,-3.150769,3.620033,-0.541851,-0.111648,0.035573
32.620,80040,9.715671,-2.006341,4.625597,-0.334677,-0.276055,0.162142
32.640,80060,8.901642,-0.972046,4.932055,-0.168804,-0.047697,0.021184
32.660,80080,8.561666,-1.106121,4.544195,-0.136562,0.058622,-0.272591
32.680,80100,9.255983,-1.115698,4.687847,-0.145888,0.032508,-0.525198
32.700,80120,8.939949,-0.828394,4.702212,-0.031576,0.192786,-0.760617
32.720,80140,8.528147,-1.379060,4.367024,-0.039703,0.225694,-0.930753
32.740,80160,8.628703,-1.714248,4.055778,-0.054891,0.272458,-0.931686
32.760,80180,8.825027,-2.073379,4.060566,-0.037438,0.251541,-0.799654
32.780,80200,8.705317,-2.164358,4.146757,0.036372,0.219432,-0.609000
32.800,80220,8.422802,-1.881842,4.434062,0.072211,0.215835,-0.431936
32.820,80240,8.106767,-1.656788,4.625597,0.070080,0.193585,-0.336276
32.840,80260,8.183381,-1.446098,4.654328,0.085668,0.173734,-0.318156
32.860,80280,8.638280,-1.345541,4.711789,0.099124,-0.015721,-0.310828
32.880,80300,8.868123,-1.110910,4.625597,-0.023582,0.253672,-0.230890
32.900,80320,9.251195,-0.976834,4.673482,0.054225,0.039170,-0.256070
32.920,80340,9.452309,-1.182736,5.386954,0.233288,-0.195583,-0.218632
32.940,80360,9.548077,-1.283292,5.645528,0.168538,-0.016121,-0.215168
32.960,80380,9.605537,-1.565808,5.578490,0.170802,0.071945,-0.236352
32.980,80400,9.466674,-1.541866,5.501875,0.099124,0.155081,-0.232222
33.000,80420,9.825804,-1.096544,5.363012,0.009060,0.211704,-0.244080
33.020,80440,10.031705,-0.593762,6.071695,0.103254,0.056890,-0.299104
33.040,80460,11.429919,-0.823605,6.435614,0.113779,0.208374,-0.334544
33.060,80480,11.334151,-0.981623,6.009446,0.293908,0.267795,-0.225560
33.080,80500,10.840945,-1.522712,5.899313,0.318156,0.261933,-0.229557
33.100,80520,10.960655,-1.498770,5.501875,0.254605,0.206508,-0.229691
33.120,80540,10.558430,-1.216254,4.774038,0.146155,0.214236,-0.235153
33.140,80560,10.783484,-0.938527,4.343082,0.049962,0.078873,-0.239949
33.160,80580,10.271125,-1.024718,4.003105,0.177597,-0.181594,-0.195317
33.180,80600,9.466674,-1.086968,3.945644,0.155481,-0.195184,-0.037305
33.200,80620,8.968679,-0.770933,4.209007,0.193851,-0.145622,0.132698
33.220,80640,8.786720,-0.062249,4.491522,0.219698,-0.005462,0.153882
33.240,80660,8.983045,0.450110,5.027823,0.308564,0.087400,-0.017587
33.260,80680,9.533711,0.598550,4.932055,0.391167,0.199580,-0.302435
33.280,80700,10.055647,0.158017,4.520253,0.466976,0.297505,-0.472571
33.300,80720,9.902418,-0.186748,4.328717,0.580888,0.256870,-0.485894
33.320,80740,9.299079,-0.205901,4.568137,0.623922,0.239816,-0.439130
33.340,80760,8.844181,-0.402226,4.764462,0.601539,0.226893,-0.376378
33.360,80780,8.686164,-0.387861,4.951209,0.452320,0.303368,-0.322286
33.380,80800,8.547300,-0.296881,5.137957,0.334544,0.296706,-0.265397
33.400,80820,8.599973,-0.234632,5.066131,0.254072,0.277787,-0.164940
33.420,80840,8.437167,-0.378284,4.692636,0.170003,0.235553,-0.015455
33.440,80860,8.082825,-0.320823,4.788404,0.094727,0.166939,0.123372
33.460,80880,8.106767,-0.181959,4.740520,-0.019452,0.145622,0.170802
33.480,80900,8.374918,0.244209,5.214571,-0.083669,0.099657,0.161876
33.500,80920,9.050082,0.129287,4.874595,-0.074077,-0.126570,0.020651
33.520,80940,8.978256,0.038307,5.008670,-0.149352,-0.025980,-0.022516
33.540,80960,9.198523,-0.378284,4.960786,-0.172002,-0.032375,-0.004263
33.560,80980,9.533711,-0.253785,5.090073,-0.267928,-0.033308,0.077008
33.580,81000,10.079589,-0.047884,5.391742,-0.190387,-0.126836,0.126969
33.600,81020,10.362105,-0.143652,5.272032,-0.241681,-0.020251,0.174266
33.620,81040,10.213664,-0.229843,5.219360,-0.228492,-0.049962,0.216900
33.640,81060,10.137050,-0.052672,6.186617,-0.226493,-0.097392,0.227692
33.660,81080,12.291832,-0.847547,7.067683,-0.364387,0.148953,0.239017
33.680,81100,12.799402,-1.005565,6.315904,0.040369,0.325351,0.213836
33.700,81120,11.932701,0.067038,6.708553,-0.113113,0.291643,0.184126
33.720,81140,11.372458,0.205901,6.248867,-0.157746,0.168937,0.146554
33.740,81160,10.084377,0.675165,6.014235,-0.105519,0.178397,-0.039303
33.760,81180,8.944737,0.296881,5.908890,-0.173600,0.120441,-0.178263
33.780,81200,8.317456,-0.708684,5.487510,-0.305100,0.143757,-0.178397
33.800,81220,8.255207,-1.221043,5.439626,-0.414482,0.126436,-0.029977
33.820,81240,8.767567,-0.708684,5.315128,-0.536123,0.050095,0.058222
33.840,81260,8.872911,0.081403,5.588067,-0.594877,-0.025314,-0.000666
33.860,81280,8.877700,0.478840,5.616797,-0.589948,0.047430,-0.089265
33.880,81300,8.949526,0.632069,5.358223,-0.461646,-0.071412,-0.266596
33.900,81320,9.045294,-0.057461,5.286397,-0.353995,-0.170270,-0.395430
33.920,81340,8.810662,0.162806,5.319916,-0.409819,-0.250874,-0.488426
33.940,81360,8.647857,0.871489,5.420473,-0.469640,-0.215968,-0.621391
33.960,81380,8.394072,1.134852,5.444415,-0.484695,-0.107651,-0.738767
33.980,81400,8.121132,1.173159,5.415684,-0.364254,-0.084202,-0.767812
34.000,81420,8.078036,0.679953,5.420473,-0.252873,-0.010126,-0.649236
34.020,81440,8.547300,0.210690,5.300763,-0.245678,0.057023,-0.431003
34.040,81460,8.638280,0.153229,5.367800,-0.240216,0.022649,-0.244613
34.060,81480,8.274361,0.124498,5.363012,-0.198381,-0.035173,-0.101789
34.080,81500,8.049306,0.177171,5.434838,-0.135629,-0.063685,0.011591
34.100,81520,7.977480,0.407014,5.549759,-0.080338,-0.069680,0.101655
34.120,81540,7.987057,0.881066,5.722142,0.070479,-0.075809,0.140426
34.140,81560,8.355764,0.938527,5.784391,0.137228,-0.052227,0.107917
34.160,81580,8.652645,0.598550,5.899313,0.241948,-0.021317,0.114179
34.180,81600,8.863335,0.545878,5.932832,0.314559,-0.022116,0.163608
34.200,81620,9.203311,0.517148,6.263232,0.389435,0.011325,0.232489
34.220,81640,9.318233,0.852336,6.459556,0.449123,-0.040769,0.237418
34.240,81660,9.222465,0.804452,6.517017,0.488959,-0.053159,0.190254
34.260,81680,9.447520,0.584185,7.335834,0.449123,-0.086600,0.161476
34.280,81700,11.286267,-0.153229,7.589619,0.320288,0.062485,0.254605
34.300,81720,11.516110,-0.287304,6.947973,0.473371,0.054358,0.363322
34.320,81740,11.750742,-0.134075,6.742072,0.399560,0.071012,0.345069
34.340,81760,11.817780,-0.076614,6.090849,0.476701,-0.162276,0.300969
34.360,81780,10.749966,-0.095768,5.774815,0.246078,-0.171735,0.159611
34.380,81800,10.697293,-1.292869,5.367800,0.005462,-0.289645,0.187590
34.400,81820,10.386047,-2.647987,4.812346,-0.370783,-0.599541,0.346268
34.420,81840,9.437943,-3.428497,4.472369,-0.611665,-0.745829,0.461113
34.440,81860,8.360553,-2.097321,4.745308,-1.088766,-0.587816,0.379176
34.460,81880,8.197746,-1.446098,4.979939,-1.526564,-0.461779,0.067415
34.480,81900,8.532935,-1.197101,5.693412,-1.828466,-0.374247,-0.289112
34.500,81920,8.810662,-1.393425,6.090849,-2.333012,-0.223162,-0.630983
34.520,81940,8.647857,-1.120486,6.081272,-2.794792,0.043700,-0.928355
34.540,81960,8.815451,-0.646434,5.286397,-3.162377,0.188655,-1.183360
34.560,81980,9.160215,0.737414,4.999093,-3.070980,0.225694,-1.223063
34.580,82000,8.552089,2.509123,4.754885,-2.558706,0.228092,-0.977384
34.600,82020,9.212888,2.370260,4.084508,-2.173668,0.233554,-0.782867
34.620,82040,9.212888,2.758120,3.902549,-1.217334,0.242348,-0.440063
34.640,82060,8.729259,3.112462,3.505111,-0.610865,0.115645,-0.101922
34.660,82080,8.446744,2.226608,3.174711,0.247943,0.151617,0.278054
34.680,82100,8.705317,0.972046,3.117251,0.821770,0.080072,0.549979
34.700,82120,8.537724,0.483629,3.303998,1.209074,0.098724,0.765413
34.720,82140,8.801085,0.229843,3.749320,1.381341,0.045432,0.842021
34.740,82160,8.844181,0.143652,4.213795,1.414916,-0.120308,0.758885
34.760,82180,9.078813,-0.670376,4.635174,1.403458,-0.094994,0.593012
34.780,82200,9.533711,-1.618480,4.716578,1.048530,-0.191453,0.461779
34.800,82220,9.481039,-3.447650,5.161899,0.632982,-0.256070,0.290178
34.820,82240,9.892841,-3.835511,5.535394,0.251940,-0.199580,0.091530
34.840,82260,10.170568,-4.180276,5.319916,-0.426606,-0.127502,-0.079273
34.860,82280,10.285490,-3.782839,5.453991,-1.042401,-0.166806,-0.298704
