Time(s),Time(ms),AccelX,AccelY,AccelZ,GyroX,GyroY,GyroZ
0.000,431880,3.093309,5.755661,6.665458,-0.065417,-0.032375,-0.220897
0.020,431900,3.356671,5.798757,6.698977,-0.055824,-0.063685,-0.162276
0.040,431920,3.155558,5.741296,6.809110,-0.068747,-0.080205,-0.076475
0.060,431940,2.973598,5.698200,7.005434,-0.086201,-0.085135,-0.006262
0.080,431960,2.585738,5.655105,7.105990,-0.118443,-0.065550,0.015455
0.100,431980,2.403779,5.616797,7.053318,-0.127502,-0.040502,-0.024115
0.120,432000,2.422932,5.736507,7.101202,-0.108450,-0.027712,-0.081804
0.140,432020,2.671929,5.760449,7.211336,-0.076874,-0.033974,-0.115778
0.160,432040,2.643199,5.516241,6.991069,-0.048496,-0.068881,-0.105386
0.180,432060,2.413355,5.195418,6.794744,0.003331,-0.111515,-0.068214
0.200,432080,2.466028,5.439626,7.082048,0.035706,-0.125770,-0.038637
0.220,432100,3.083732,6.205771,7.407660,0.038770,-0.085934,0.002665
0.240,432120,3.490746,6.837840,7.479486,0.011325,-0.041568,0.084735
0.260,432140,3.509900,7.144298,7.474698,0.021317,-0.023582,0.170936
0.280,432160,3.390190,7.474698,7.656657,0.041435,-0.026113,0.222230
0.300,432180,3.236961,7.704541,7.929596,0.051294,-0.015588,0.232355
0.320,432200,3.687071,8.690952,8.614338,0.030910,0.024115,0.205309
0.340,432220,3.907337,9.279925,8.394072,-0.005729,0.069813,0.209706
0.360,432240,3.663129,9.495404,8.753201,0.004796,0.090597,0.199047
0.380,432260,4.050989,9.586384,8.920795,-0.011724,0.144023,0.177198
0.400,432280,3.466804,9.006987,8.303091,-0.109250,0.183193,0.200113
0.420,432300,2.542642,8.341399,7.728483,-0.123372,0.197582,0.186391
0.440,432320,2.188300,7.738060,7.125144,-0.089265,0.170136,0.117510
0.460,432340,2.384625,7.144298,6.397307,0.000666,0.097126,0.070879
0.480,432360,2.351106,7.072472,6.215348,0.041435,0.046364,0.099923
0.500,432380,2.015918,7.120356,6.607996,0.036239,0.067282,0.113646
0.520,432400,1.881842,7.465121,7.115568,-0.026380,0.156547,0.055291
0.540,432420,1.929727,7.733272,7.369353,-0.089531,0.215435,-0.036639
0.560,432440,1.829170,7.139510,7.244854,-0.152550,0.262199,-0.106452
0.580,432460,1.924938,6.722919,6.943185,-0.217034,0.286714,-0.131766
0.600,432480,2.576161,6.833052,6.574478,-0.229824,0.285248,-0.104853
0.620,432500,2.944868,6.789956,6.181829,-0.202911,0.229024,-0.022783
0.640,432520,2.791639,6.856994,6.157887,-0.150285,0.146421,0.041302
0.660,432540,2.806004,6.842628,6.263232,-0.075009,0.102455,0.057956
0.680,432560,2.667141,6.531382,6.296751,-0.037438,0.061020,0.072877
0.700,432580,2.422932,6.162675,6.421249,-0.028911,0.023582,0.083136
0.720,432600,1.924938,6.090849,6.478710,-0.058089,0.016787,0.066349
0.740,432620,1.666364,6.105214,6.732495,-0.083802,0.051827,0.004263
0.760,432640,1.628057,6.119579,6.718130,-0.122173,0.067149,-0.057822
0.780,432660,1.747767,5.966351,6.536170,-0.140959,0.045832,-0.089798
0.800,432680,1.853112,5.894525,6.133945,-0.130167,-0.014389,-0.071279
0.820,432700,2.188300,6.617573,6.339846,-0.103787,-0.083936,-0.071945
0.840,432720,2.561796,7.292738,6.507440,-0.067415,-0.113247,-0.091530
0.860,432740,2.882619,7.924808,6.809110,-0.041835,-0.157346,-0.097392
0.880,432760,3.404555,8.432379,7.235278,-0.005063,-0.190920,-0.098858
0.900,432780,4.027047,8.714894,7.508216,-0.010792,-0.226227,-0.061153
0.920,432800,4.410120,8.992621,7.953538,-0.035839,-0.281251,-0.001998
0.940,432820,4.635174,9.030929,8.010999,-0.059421,-0.298038,0.023449
0.960,432840,3.787627,8.317456,8.279149,-0.101789,-0.300303,0.043300
0.980,432860,3.591303,8.729259,8.968679,-0.146021,-0.280985,-0.049962
1.000,432880,3.787627,8.561666,8.810662,-0.176798,-0.209306,-0.162942
1.020,432900,3.313575,7.493851,8.255207,-0.193052,-0.186524,-0.178530
1.040,432920,2.758120,6.200983,7.369353,-0.150418,-0.187323,-0.153482
1.060,432940,2.226608,5.181053,6.766014,-0.087000,-0.228891,-0.117643
1.080,432960,2.331953,5.080496,6.914454,-0.006129,-0.263132,-0.140292
1.100,432980,3.050213,5.631162,7.340622,-0.009060,-0.262865,-0.198781
1.120,433000,3.323152,6.349423,7.647080,-0.063018,-0.259002,-0.221564
1.140,433020,3.260903,6.856994,8.006210,-0.103521,-0.236619,-0.273923
1.160,433040,2.964022,6.933608,8.370130,-0.136296,-0.222763,-0.336942
1.180,433060,2.911349,7.067683,8.365341,-0.211305,-0.187989,-0.421943
1.200,433080,3.040636,7.101202,7.905654,-0.275522,-0.135629,-0.500417
1.220,433100,3.356671,6.962338,7.441179,-0.292309,-0.119775,-0.514406
1.240,433120,3.438074,6.655881,6.938396,-0.287646,-0.160011,-0.456051
1.260,433140,3.318364,6.368577,6.598420,-0.246078,-0.191587,-0.368251
1.280,433160,3.045424,6.052542,6.382942,-0.195717,-0.197582,-0.279119
1.300,433180,2.585738,5.774815,6.315904,-0.169737,-0.162675,-0.223828
1.320,433200,2.226608,5.693412,6.473921,-0.146021,-0.129501,-0.222230
1.340,433220,2.092532,5.607220,6.521805,-0.124571,-0.097925,-0.261000
1.360,433240,1.900996,5.449203,6.646304,-0.128568,-0.068214,-0.314426
1.380,433260,1.728614,5.147533,6.593631,-0.133364,-0.043567,-0.357060
1.400,433280,1.623269,4.984728,6.440403,-0.152017,-0.030910,-0.374779
1.420,433300,1.953669,5.037400,6.387730,-0.131766,-0.026779,-0.354662
1.440,433320,2.461239,5.521029,6.665458,-0.118975,-0.036106,-0.268328
1.460,433340,3.088520,6.641516,7.230489,-0.118443,-0.035573,-0.174133
1.480,433360,3.797204,7.675811,7.608773,-0.123505,-0.018919,-0.076342
1.500,433380,4.074931,8.097190,7.613562,-0.093928,-0.055557,0.040636
1.520,433400,3.787627,7.987057,7.623138,-0.026779,-0.108983,0.147354
1.540,433420,3.299210,7.972692,8.020576,0.017587,-0.120308,0.191320
1.560,433440,3.725378,9.011775,8.863335,0.030243,-0.086067,0.190920
1.580,433460,4.295198,9.710882,8.504205,0.002265,-0.031576,0.206908
1.600,433480,3.332729,9.107543,8.283937,0.037172,-0.037438,0.275256
1.620,433500,3.347094,9.629479,8.963891,0.057822,-0.029444,0.228758
1.640,433520,3.390190,9.466674,8.710106,-0.018386,0.023182,0.190521
1.660,433540,2.585738,8.604761,7.939173,-0.071678,0.027579,0.199980
1.680,433560,1.680730,7.297527,6.933608,-0.065816,0.035706,0.196516
1.700,433580,1.513135,6.708553,6.320693,-0.030643,0.024914,0.175998
1.720,433600,2.068590,6.928820,5.884948,0.023049,0.007994,0.154015
1.740,433620,1.972822,6.847417,5.971139,0.042900,0.007461,0.178663
1.760,433640,1.900996,7.235278,6.737284,0.038504,0.038104,0.170802
1.780,433660,2.188300,7.570466,7.345411,-0.024381,0.121507,0.122173
1.800,433680,1.929727,7.364564,7.474698,-0.135096,0.210772,0.093262
1.820,433700,1.939303,7.292738,7.733272,-0.193851,0.292443,0.034507
1.840,433720,2.576161,7.469909,7.445967,-0.224361,0.347334,-0.011058
1.860,433740,3.280056,7.704541,7.010222,-0.189455,0.313360,0.022383
1.880,433760,3.778050,7.805098,6.555324,-0.090331,0.239949,0.065417
1.900,433780,3.624821,7.326257,6.244078,-0.003997,0.166406,0.090597
1.920,433800,3.500323,6.574478,6.062119,0.074476,0.110449,0.085135
1.940,433820,3.912126,5.975927,5.664681,0.114979,0.051827,0.095660
1.960,433840,3.974375,4.644751,4.649539,0.123639,-0.013856,0.182394
1.980,433860,3.126827,2.762909,3.265691,0.134564,-0.101922,0.336009
2.000,433880,1.853112,0.814029,1.900996,0.208507,-0.244080,0.547314
2.020,433900,-1.029507,-0.493206,2.959233,0.279786,-0.406622,0.657496
2.040,433920,-2.949656,1.848324,6.698977,0.213836,-0.347600,0.219965
2.060,433940,-1.268927,6.852205,10.079589,0.168538,-0.364787,-0.351064
2.080,433960,0.814029,10.299856,12.081141,0.079539,-0.332545,-0.400893
2.100,433980,4.458004,14.369999,14.216769,0.090064,-0.404623,-0.007994
2.120,434000,3.854665,12.512098,13.848063,0.221297,-0.561836,0.535989
2.140,434020,1.034295,13.508086,15.428236,0.241015,-0.669887,0.343470
2.160,434040,4.845864,20.561403,16.725893,0.320021,-0.515472,-0.436732
2.180,434060,8.489840,23.142353,17.300501,0.365853,-0.238217,-0.240349
2.200,434080,4.946421,17.338808,16.285360,0.470706,-0.026247,0.220364
2.220,434100,7.326257,13.824121,11.089942,0.377577,0.025447,0.104587
2.240,434120,10.055647,10.706870,4.453215,0.544250,-0.345335,0.310029
2.260,434140,9.313444,7.115568,0.239420,0.660294,-0.540919,0.398894
2.280,434160,7.225701,1.987187,-1.987187,0.535856,-0.544783,0.345069
2.300,434180,5.176264,-1.537078,-3.193865,0.067948,-0.399560,0.185724
2.320,434200,1.924938,-2.695871,-3.308787,-0.488159,-0.028645,-0.234887
2.340,434220,0.790087,-2.308010,-2.178724,-0.860407,0.556773,-0.784465
2.360,434240,2.815581,0.387861,0.651223,-1.027080,0.867735,-1.073577
2.380,434260,3.514688,1.077391,1.829170,-1.045332,0.802985,-1.074510
2.400,434280,1.699883,-0.196325,0.617704,-0.884123,0.577824,-0.889319
2.420,434300,-1.747767,-1.259350,0.521936,-0.706925,0.557440,-0.764747
2.440,434320,-2.873042,-0.699107,1.216254,-0.612064,0.595011,-0.807781
2.460,434340,-3.524265,-0.636858,2.116474,-0.624188,0.619126,-0.763282
2.480,434360,-3.131616,0.373495,3.107674,-0.599008,0.648836,-0.610199
2.500,434380,-1.541866,1.728614,3.418920,-0.515605,0.526930,-0.312960
2.520,434400,-0.301669,2.533065,3.572149,-0.372648,0.160677,0.021583
2.540,434420,2.221819,6.823475,6.727707,-0.292709,-0.156014,0.012790
2.560,434440,4.893748,11.903971,10.223241,-0.416081,-0.271259,-0.023582
2.580,434460,5.090073,13.618219,12.617443,-0.614196,-0.095260,0.078740
2.600,434480,1.929727,9.418790,11.731588,-0.336675,-0.132565,0.357326
2.620,434500,3.931279,13.766660,13.594277,-0.280585,-0.570896,-0.076608
2.640,434520,8.485051,19.608511,17.314867,-0.458848,0.142158,-0.397562
2.660,434540,8.796297,17.999609,13.599066,-0.531992,0.486960,-0.119508
2.680,434560,5.971139,15.298949,12.943054,-0.322953,0.314292,-0.074609
2.700,434580,1.719037,10.970232,11.501745,-0.143757,0.386371,-0.460181
2.720,434600,0.464475,8.676587,10.864887,-0.205176,0.663358,-0.892916
2.740,434620,0.770933,6.464345,8.537724,-0.309230,0.848417,-0.968591
2.760,434640,1.728614,5.511452,7.019799,-0.358658,0.759951,-0.835360
2.780,434660,1.537078,3.687071,6.545747,-0.248876,0.648969,-0.717583
2.800,434680,0.967257,3.663129,7.225701,-0.344136,0.435133,-0.719182
2.820,434700,1.948880,5.272032,7.752425,-0.420744,0.434734,-0.732505
2.840,434720,1.139640,5.382165,7.493851,-0.364254,0.489891,-0.700663
2.860,434740,0.545878,5.588067,7.230489,-0.366386,0.429005,-0.718383
2.880,434760,0.320823,5.530606,7.125144,-0.219965,0.348933,-0.660694
2.900,434780,-0.790087,4.582502,6.761226,-0.120974,0.296173,-0.531593
2.920,434800,-2.250550,3.112462,6.967127,-0.069680,0.261666,-0.459381
2.940,434820,-2.528277,2.604892,7.426814,-0.128968,0.272191,-0.486827
2.960,434840,-1.096544,3.552995,7.541735,-0.231023,0.350398,-0.477234
2.980,434860,0.497994,4.979939,7.809886,-0.195184,0.307631,-0.296306
3.000,434880,2.446874,6.378153,7.699753,-0.112580,0.313626,-0.062352
3.020,434900,2.264915,5.774815,7.177817,0.000533,0.144689,0.220364
3.040,434920,0.723049,5.070919,7.963115,0.087933,-0.030243,0.404090
3.060,434940,0.536301,7.627927,9.639056,-0.087400,0.036905,0.452853
3.080,434960,0.349553,10.093954,9.868899,-0.160011,0.185058,0.385438
3.100,434980,-0.387861,9.677363,8.815451,-0.083003,0.221564,0.260467
3.120,435000,-0.785298,10.026917,8.714894,-0.103654,0.255937,0.192386
3.140,435020,-0.876278,10.477027,8.757990,-0.122040,0.291510,0.120841
3.160,435040,0.569820,11.750742,8.408437,-0.049029,0.273524,-0.000400
3.180,435060,1.513135,11.382035,7.790732,0.091397,0.112847,0.045698
3.200,435080,0.876278,9.959879,7.948750,0.138694,0.015588,0.167205
3.220,435100,-0.086191,8.355764,8.058883,0.067015,0.015055,0.206242
3.240,435120,-0.646434,6.804321,7.326257,-0.008127,0.031443,0.133498
3.260,435140,-1.393425,6.153099,6.856994,-0.134430,0.092995,-0.029044
3.280,435160,-1.278504,5.497087,6.517017,-0.228358,0.149219,-0.128035
3.300,435180,-0.110133,5.439626,6.215348,-0.237951,0.203311,-0.023049
3.320,435200,0.153229,5.530606,5.784391,-0.285914,0.214636,0.186524
3.340,435220,-0.196325,5.449203,5.932832,-0.290178,0.151351,0.282717
3.360,435240,-0.584185,5.248090,6.263232,-0.261533,0.118443,0.239283
3.380,435260,-0.665588,5.147533,6.722919,-0.199181,0.048096,0.174933
3.400,435280,-0.694318,4.955997,6.785168,-0.189455,0.009193,0.158945
3.420,435300,-0.440533,5.506664,7.053318,-0.214502,-0.025181,0.135629
3.440,435320,-0.474052,6.047753,7.647080,-0.190387,-0.046231,0.107651
3.460,435340,0.052672,6.502652,6.813898,-0.159078,-0.105386,0.130433
3.480,435360,-0.172383,6.833052,6.799533,-0.224894,-0.077274,0.119242
3.500,435380,-0.565032,6.914454,8.130709,-0.216900,-0.073544,0.092729
3.520,435400,-0.464475,7.273585,7.982268,-0.095260,-0.120441,0.036106
3.540,435420,0.181959,8.355764,8.825027,-0.080338,-0.126703,0.010392
3.560,435440,1.063026,9.634268,9.490616,-0.047164,-0.158012,-0.033974
3.580,435460,2.078167,10.218452,9.375694,0.053292,-0.198115,-0.066616
3.600,435480,2.346318,9.538500,9.844957,0.082603,-0.312427,0.001066
3.620,435500,2.351106,8.317456,9.006987,-0.016121,-0.318023,0.029844
3.640,435520,0.229843,6.172252,10.266336,-0.017187,-0.354262,0.040502
3.660,435540,0.531513,5.554548,9.083601,-0.128435,-0.270726,-0.011858
3.680,435560,1.685518,6.200983,8.614338,-0.175466,-0.230490,0.007594
3.700,435580,1.594538,6.095637,8.341399,-0.151217,-0.215435,0.027046
3.720,435600,0.742203,5.396531,8.705317,-0.147487,-0.238617,-0.008527
3.740,435620,0.110133,5.104438,8.911219,-0.213969,-0.215302,-0.123772
3.760,435640,0.167594,5.315128,9.385271,-0.310562,-0.077008,-0.297639
3.780,435660,0.871489,5.607220,9.557653,-0.451654,0.085268,-0.335876
3.800,435680,0.962469,5.707777,8.547300,-0.336276,0.024914,-0.233954
3.820,435700,1.359907,5.626374,8.269572,-0.249675,0.020118,-0.161210
3.840,435720,0.818817,5.257667,8.192958,-0.145888,-0.026113,-0.128835
3.860,435740,0.550666,5.114015,8.317456,-0.090464,-0.059954,-0.194651
3.880,435760,0.995988,5.415684,7.876924,-0.057023,-0.064750,-0.204377
3.900,435780,1.460463,4.850653,7.005434,0.023582,-0.055424,-0.129368
3.920,435800,1.886631,4.740520,7.206547,0.141358,-0.088599,-0.040103
3.940,435820,2.102109,5.238513,7.599196,0.129501,-0.183992,0.118576
3.960,435840,1.599327,5.717354,7.441179,0.350531,-0.443127,0.273923
3.980,435860,-0.033519,4.884171,7.900866,0.663492,-0.680412,0.264597
4.000,435880,-0.464475,4.625597,7.852982,0.808447,-0.762083,0.067681
4.020,435900,0.536301,5.477933,7.905654,0.795657,-0.843221,-0.008527
4.040,435920,0.866701,6.493075,8.221688,0.737835,-0.971922,0.064617
4.060,435940,0.919373,7.259220,8.585608,0.555441,-0.812577,0.156680
4.080,435960,0.995988,7.766790,9.064447,0.313760,-0.492423,0.203044
4.100,435980,1.115698,7.963115,8.911219,0.239417,-0.400893,0.184392
4.120,436000,2.020706,8.312668,8.015787,0.248876,-0.172801,0.241415
4.140,436020,1.594538,8.422802,9.112331,0.164807,-0.007861,0.286314
4.160,436040,2.365471,8.868123,8.906430,0.132165,0.080738,0.303101
4.180,436060,1.604115,8.504205,9.059659,0.048629,0.194518,0.364654
4.200,436080,2.327164,9.289502,8.499416,0.105386,0.240749,0.332678
4.220,436100,2.035071,8.719683,8.169016,0.123905,0.332279,0.335609
4.240,436120,0.995988,7.929596,7.398083,-0.106851,0.533724,0.293508
4.260,436140,0.938527,8.092402,6.651093,-0.249009,0.688273,0.144289
4.280,436160,1.431733,8.063671,6.071695,-0.226760,0.674017,0.023848
4.300,436180,1.565808,7.603985,5.851429,-0.133764,0.569297,0.037172
4.320,436200,1.077391,7.062895,6.200983,-0.165606,0.544250,0.127369
4.340,436220,0.981623,7.393295,6.737284,-0.124038,0.510675,0.161609
4.360,436240,1.048660,7.867347,6.718130,-0.160943,0.559038,0.131499
4.380,436260,0.804452,7.800309,6.718130,-0.330680,0.670153,0.039836
4.400,436280,0.411803,7.383718,6.751649,-0.339740,0.637911,-0.056890
4.420,436300,0.842759,7.211336,6.488286,-0.228891,0.543983,-0.113247
4.440,436320,1.278504,6.952762,6.196194,-0.122440,0.413816,-0.077407
4.460,436340,1.541866,6.684611,5.961562,-0.051960,0.275123,0.014389
4.480,436360,1.412579,6.564901,6.066907,-0.042501,0.168804,0.086734
4.500,436380,1.278504,6.675035,6.162675,-0.058888,0.118176,0.103654
4.520,436400,1.048660,6.521805,6.320693,-0.093928,0.104453,0.118842
4.540,436420,0.579397,6.253655,6.382942,-0.157080,0.126969,0.105119
4.560,436440,0.435745,6.263232,6.320693,-0.209306,0.146554,0.075809
4.580,436460,0.512359,6.564901,6.210559,-0.209972,0.154415,0.025980
4.600,436480,0.541090,6.713342,6.291962,-0.176931,0.073277,0.041568
4.620,436500,0.464475,6.885724,6.038177,-0.153216,-0.002398,0.062086
4.640,436520,0.311246,7.335834,7.149086,-0.125371,-0.037704,0.040636
4.660,436540,1.015141,8.226477,6.828263,-0.118443,-0.118975,0.029577
4.680,436560,1.326388,8.743625,7.043741,-0.102588,-0.208640,0.090064
4.700,436580,0.976834,8.528147,8.097190,0.053559,-0.377311,0.136029
4.720,436600,1.704672,8.566454,7.187394,0.382507,-0.591413,0.152017
4.740,436620,2.834735,9.054871,7.144298,0.125504,-0.400626,0.089132
4.760,436640,1.996764,8.959103,8.207323,0.133764,-0.347201,0.176132
4.780,436660,1.651999,9.849746,9.093178,0.122173,-0.247544,0.184658
4.800,436680,1.331176,9.753978,9.572019,0.027046,-0.094194,0.207441
4.820,436700,1.221043,9.572019,8.389283,0.028112,0.024648,0.333478
4.840,436720,1.273715,10.065224,7.546524,0.160677,0.232622,0.710789
4.860,436740,2.068590,10.065224,6.809110,0.202778,0.460447,1.307798
4.880,436760,2.523489,9.385271,5.942409,0.720248,0.308963,1.961031
4.900,436780,1.877054,8.671799,5.142745,1.154982,0.316691,2.541919
4.920,436800,0.234632,8.537724,6.545747,1.606902,0.368118,2.883657
4.940,436820,-0.268151,7.082048,7.527370,1.997802,0.633248,2.858077
4.960,436840,-0.009577,6.023811,7.733272,1.716951,1.092230,2.497952
4.980,436860,1.158794,5.612009,8.255207,1.510709,1.264098,2.080672
5.000,436880,1.771709,4.328717,7.977480,1.142858,1.452087,1.700430
5.020,436900,2.322376,3.519476,8.034941,0.624455,1.712288,1.309263
5.040,436920,2.537854,2.619257,7.714118,0.179329,1.896280,0.907438
5.060,436940,4.448427,4.434062,5.798757,0.053426,1.654066,0.444593
5.080,436960,8.073248,7.206547,5.027823,0.148020,1.028945,0.621124
5.100,436980,4.630386,5.626374,6.406884,0.221031,0.664557,0.813377
5.120,437000,3.892972,5.506664,5.760449,0.311361,0.351464,0.704926
5.140,437020,3.859453,6.023811,6.746861,0.199314,0.211172,0.482430
5.160,437040,3.840300,5.999869,6.373365,0.082737,0.195051,0.393299
5.180,437060,2.791639,5.521029,6.737284,0.024781,0.079006,0.341871
5.200,437080,1.268927,4.932055,7.340622,-0.064884,0.134164,0.139760
5.220,437100,2.422932,5.817910,6.526594,-0.115245,0.261266,-0.194118
5.240,437120,3.385401,6.258443,7.273585,-0.144822,0.272191,-0.369450
5.260,437140,3.141193,6.191406,7.862558,-0.209706,0.270459,-0.391966
5.280,437160,3.792415,7.015011,7.441179,-0.263798,0.235553,-0.350665
5.300,437180,4.352659,7.393295,6.789956,-0.240482,0.121240,-0.236086
5.320,437200,2.930503,7.560889,8.978256,-0.366119,0.128968,-0.333877
5.340,437220,4.496311,8.872911,8.360553,-0.339606,0.170270,-0.367185
5.360,437240,4.290410,8.762778,8.034941,-0.162809,0.031043,-0.331879
5.380,437260,4.807557,9.600749,7.963115,-0.268461,0.109783,-0.374913
5.400,437280,4.199430,9.682152,6.986280,-0.293242,0.110715,-0.450588
5.420,437300,3.524265,8.609550,6.339846,-0.224095,-0.003198,-0.859475
5.440,437320,3.605668,7.278373,6.315904,-0.168804,-0.110848,-1.156181
5.460,437340,3.801992,6.210559,6.789956,-0.355328,-0.308430,-1.323386
5.480,437360,5.209783,6.373365,6.086061,-0.581155,-0.683743,-1.418247
5.500,437380,5.975927,7.551312,5.564125,-0.728908,-1.102222,-1.294608
5.520,437400,3.873818,7.508216,7.062895,-0.965793,-1.229058,-1.184426
5.540,437420,1.977611,6.742072,7.661446,-1.139127,-1.226660,-1.314459
5.560,437440,0.387861,5.803545,5.913678,-1.235986,-1.198149,-1.576792
5.580,437460,-0.857124,6.411672,6.900089,-1.105953,-1.219732,-1.840456
5.600,437480,0.158017,7.785944,6.847417,-0.994571,-1.041469,-1.740799
5.620,437500,0.718261,7.795521,6.809110,-0.887587,-0.821237,-1.507245
5.640,437520,1.029507,7.594408,6.325481,-0.748227,-0.764081,-1.205876
5.660,437540,2.341529,8.365341,5.544971,-0.630184,-0.631516,-0.934484
5.680,437560,2.470816,9.035717,6.277597,-0.566366,-0.514805,-0.504413
5.700,437580,1.383849,7.886500,6.861782,-0.511608,-0.386504,-0.091930
5.720,437600,0.814029,6.842628,6.766014,-0.423809,-0.236752,0.029977
5.740,437620,0.430956,6.086061,5.913678,-0.176931,-0.269260,-0.043966
5.760,437640,-0.057461,6.042965,6.402095,-0.136162,-0.235420,-0.224495
5.780,437660,0.201113,6.483498,6.540959,-0.201979,-0.127369,-0.349199
5.800,437680,2.025495,7.766790,6.023811,-0.230890,-0.083536,-0.350398
5.820,437700,2.566584,8.379706,6.952762,-0.154149,-0.105253,-0.174266
5.840,437720,3.423708,8.705317,5.664681,-0.042101,-0.182260,0.008127
5.860,437740,2.097321,8.408437,7.580042,0.075542,-0.341338,0.099524
5.880,437760,3.131616,9.141062,6.248867,0.256737,-0.533325,0.009726
5.900,437780,2.911349,9.121908,7.240066,0.397828,-0.598208,-0.085002
5.920,437800,2.676718,9.169792,9.006987,0.254338,-0.606735,-0.161876
5.940,437820,3.069367,8.963891,8.068460,0.204776,-0.627253,-0.179329
5.960,437840,2.978387,9.715671,8.738836,-0.074876,-0.475502,-0.379309
5.980,437860,2.710236,9.423578,8.552089,-0.185058,-0.386504,-0.447124
6.000,437880,1.436521,7.709330,7.651869,-0.215568,-0.212104,-0.510009
6.020,437900,1.331176,6.469133,7.173028,-0.159744,-0.170536,-0.635247
6.040,437920,2.054225,6.368577,6.631939,-0.552643,0.271392,-0.746495
6.060,437940,4.070143,6.928820,5.544971,-0.549712,0.084335,-0.636979
6.080,437960,2.173935,5.985504,8.010999,-0.452720,-0.167605,-0.287113
6.100,437980,1.685518,6.306327,6.823475,-0.449522,-0.166939,-0.246078
6.120,438000,1.221043,6.148310,7.460332,-0.536655,-0.158678,-0.297905
6.140,438020,-0.828394,4.793192,9.567230,-0.685475,0.001066,-0.428205
6.160,438040,-0.196325,5.257667,8.207323,-0.733838,0.186391,-0.651234
6.180,438060,-0.028730,5.722142,8.858546,-0.550378,0.299504,-0.853879
6.200,438080,1.177947,6.813898,8.441956,-0.438997,0.329614,-0.869600
6.220,438100,2.102109,6.914454,7.690176,-0.401426,0.200646,-0.620058
6.240,438120,2.212242,6.459556,5.918467,-0.358525,-0.008127,-0.370116
6.260,438140,0.885855,6.200983,8.207323,-0.374513,-0.035306,-0.257669
6.280,438160,1.082179,6.062119,7.163452,-0.175466,-0.099923,-0.096859
6.300,438180,0.885855,5.770026,7.196970,-0.278187,0.039037,-0.119908
6.320,438200,0.943315,5.631162,8.379706,-0.261000,0.023582,-0.072611
6.340,438220,1.920150,5.808333,6.976704,-0.249542,0.060887,-0.049828
6.360,438240,1.752556,5.645528,7.728483,-0.100456,-0.050228,0.024381
6.380,438260,0.670376,4.975151,8.073248,-0.010658,-0.120441,0.047564
6.400,438280,1.407791,5.616797,8.293514,0.068481,-0.191587,0.033708
6.420,438300,2.284068,6.066907,8.595184,0.063418,-0.180795,0.095926
6.440,438320,2.499547,6.200983,8.508993,0.112714,-0.164541,0.224495
6.460,438340,1.393425,5.147533,8.250419,0.126037,-0.049429,0.189588
6.480,438360,1.963245,6.138733,8.408437,-0.001865,0.019851,0.001066
6.500,438380,2.384625,7.048530,8.259995,-0.051427,0.189322,-0.014922
6.520,438400,3.332729,8.887277,8.781932,-0.154948,0.435666,0.064884
6.540,438420,3.174711,9.385271,9.074024,-0.041568,0.489225,0.131499
6.560,438440,3.145981,9.902418,9.672575,0.028778,0.511342,0.123772
6.580,438460,1.896208,8.686164,9.208099,0.059688,0.423542,0.025580
6.600,438480,-0.076614,7.038953,8.815451,0.052893,0.316291,-0.080472
6.620,438500,-0.861913,7.043741,7.972692,0.028511,0.290977,-0.245279
6.640,438520,0.071826,7.527370,6.938396,0.050495,0.278453,-0.318156
6.660,438540,-0.134075,7.331046,6.828263,0.065150,0.247677,-0.292309
6.680,438560,-0.402226,7.038953,6.919243,0.014522,0.299770,-0.303368
6.700,438580,-0.028730,6.866570,7.651869,-0.089798,0.370916,-0.299637
6.720,438600,-0.311246,6.330269,8.154651,-0.251541,0.398361,-0.247144
6.740,438620,-0.474052,5.947197,8.307879,-0.389035,0.365986,-0.179729
6.760,438640,0.225055,6.335058,7.972692,-0.339473,0.266063,-0.169470
6.780,438660,-0.632069,5.698200,8.231265,-0.296440,0.276721,-0.243413
6.800,438680,-0.847547,5.262455,8.532935,-0.313493,0.365720,-0.387969
6.820,438700,-0.047884,6.014235,8.121132,-0.356660,0.390767,-0.529328
6.840,438720,0.746991,6.593631,7.101202,-0.295907,0.295374,-0.490424
6.860,438740,0.301669,5.985504,7.187394,-0.203577,0.239550,-0.398095
6.880,438760,-0.100556,5.616797,7.144298,-0.169603,0.227159,-0.290444
6.900,438780,-0.804452,5.123591,7.015011,-0.180395,0.254738,-0.243813
6.920,438800,-0.885855,5.281609,7.096414,-0.177597,0.274723,-0.320688
6.940,438820,-0.167594,5.817910,6.991069,-0.166672,0.217433,-0.352263
6.960,438840,-0.205901,5.990293,6.574478,-0.132299,0.088199,-0.295240
6.980,438860,-0.608127,6.411672,6.804321,-0.068348,-0.035573,-0.234354
7.000,438880,-0.924162,7.149086,7.230489,-0.029577,-0.084069,-0.266862
7.020,438900,-0.818817,7.910442,7.656657,0.036106,-0.127636,-0.297239
7.040,438920,-0.617704,7.991845,7.805098,0.098458,-0.175466,-0.322819
7.060,438940,-0.110133,8.317456,8.010999,0.101655,-0.234354,-0.285515
7.080,438960,0.296881,8.762778,8.427590,0.086467,-0.306965,-0.218366
7.100,438980,0.497994,9.155427,8.949526,0.059688,-0.336276,-0.206775
7.120,439000,-0.445322,8.489840,9.634268,-0.000133,-0.363721,-0.234221
7.140,439020,-0.129287,8.724471,9.816227,-0.106452,-0.276721,-0.372115
7.160,439040,-0.703895,7.536947,9.801862,-0.166273,-0.233155,-0.430337
7.180,439060,-0.770933,6.272809,9.476251,-0.240616,-0.182260,-0.420345
7.200,439080,-0.948104,5.286397,9.346964,-0.271658,-0.085801,-0.341738
7.220,439100,0.234632,5.640739,8.753201,-0.240616,0.007061,-0.279519
7.240,439120,1.292869,6.100426,8.049306,-0.128701,-0.045432,-0.156413
7.260,439140,0.488417,5.535394,7.848193,-0.036772,-0.223962,-0.050361
7.280,439160,-0.234632,5.425261,8.298303,-0.001998,-0.312294,-0.133098
7.300,439180,-1.154005,5.152322,8.877700,-0.036239,-0.314959,-0.238884
7.320,439200,-1.541866,5.463568,9.026140,-0.167205,-0.189855,-0.363322
7.340,439220,-1.508347,6.148310,8.935161,-0.218766,-0.061286,-0.498418
7.360,439240,-0.488417,6.751649,8.523358,-0.178930,-0.004930,-0.569564
7.380,439260,0.177171,6.641516,7.920019,-0.111914,-0.051294,-0.532392
7.400,439280,0.335188,6.258443,7.532158,-0.041835,-0.144023,-0.395697
7.420,439300,0.186748,5.813122,7.254431,-0.034374,-0.153882,-0.283516
7.440,439320,0.038307,5.583278,7.134721,-0.041302,-0.141225,-0.237951
7.460,439340,-0.119710,5.118803,7.072472,-0.062219,-0.139227,-0.244479
7.480,439360,-0.497994,4.788404,7.158663,-0.102455,-0.135896,-0.259534
7.500,439380,-0.450110,4.946421,7.383718,-0.143357,-0.112447,-0.289778
7.520,439400,-0.014365,5.386954,7.484274,-0.139093,-0.096859,-0.302302
7.540,439420,0.186748,5.401319,7.551312,-0.107251,-0.110848,-0.243014
7.560,439440,-0.488417,4.850653,7.589619,-0.068081,-0.160677,-0.143757
7.580,439460,-1.489193,4.501099,8.346188,-0.075409,-0.138161,-0.130567
7.600,439480,-1.594538,4.884171,9.088389,-0.149885,-0.019319,-0.204243
7.620,439500,-1.043872,5.999869,9.433155,-0.217433,0.081671,-0.246478
7.640,439520,-0.694318,6.871359,9.404425,-0.214902,0.108983,-0.248743
7.660,439540,-0.215478,7.766790,9.385271,-0.114845,0.058222,-0.232888
7.680,439560,0.565032,8.686164,9.777920,-0.030377,0.016920,-0.165340
7.700,439580,-0.416591,8.197746,9.931149,-0.036505,-0.033175,0.023049
7.720,439600,-1.446098,8.188169,10.218452,-0.071279,-0.009326,0.064750
7.740,439620,-2.695871,7.766790,10.089166,-0.138161,0.096992,-0.045565
7.760,439640,-2.777274,7.503428,9.476251,-0.191720,0.181727,-0.204643
7.780,439660,-2.571373,7.168240,8.389283,-0.197315,0.215435,-0.252873
7.800,439680,-1.996764,6.852205,7.450756,-0.096859,0.161743,-0.156147
7.820,439700,-1.407791,7.129933,6.933608,0.009459,0.092862,0.033841
7.840,439720,-2.102109,6.416461,6.924031,0.042234,0.068081,0.219832
7.860,439740,-2.686294,5.980716,7.431602,0.011858,0.126969,0.275922
7.880,439760,-2.777274,5.722142,8.044518,-0.071145,0.237152,0.242214
7.900,439780,-2.743755,5.674258,8.355764,-0.201712,0.359591,0.169337
7.920,439800,-2.284068,6.143522,8.303091,-0.325217,0.435266,0.108184
7.940,439820,-1.446098,6.770802,7.924808,-0.325351,0.440729,0.098591
7.960,439840,-0.924162,6.933608,7.651869,-0.240749,0.384505,0.187190
7.980,439860,-1.063026,6.574478,7.407660,-0.148819,0.300436,0.299770
8.000,439880,-1.173159,6.095637,7.201759,-0.063685,0.249009,0.358925
8.020,439900,-1.139640,5.583278,7.192182,-0.002398,0.188655,0.384505
8.040,439920,-1.163582,5.319916,7.182605,-0.004796,0.150018,0.361190
8.060,439940,-0.991199,5.602432,7.005434,-0.041168,0.114845,0.337874
8.080,439960,-1.264138,5.726931,6.967127,-0.051161,0.083003,0.304966
8.100,439980,-1.110910,5.966351,6.866570,-0.045698,0.051960,0.262466
8.120,440000,-1.106121,5.683835,6.684611,-0.006928,-0.016654,0.278187
8.140,440020,-1.493982,5.114015,6.607996,0.046364,-0.098458,0.320954
8.160,440040,-2.159570,5.607220,7.383718,0.015455,-0.126969,0.286047
8.180,440060,-1.877054,6.493075,7.929596,-0.034374,-0.084469,0.136296
8.200,440080,-0.928950,7.436390,8.140285,0.005462,-0.089665,0.053426
8.220,440100,-0.158017,7.862558,8.264784,0.060753,-0.157479,0.088732
8.240,440120,0.354342,8.499416,8.695741,0.124971,-0.233155,0.171069
8.260,440140,0.699107,8.815451,8.623915,0.159611,-0.287247,0.236752
8.280,440160,0.076614,8.355764,9.557653,0.079006,-0.277787,0.233821
8.300,440180,-0.148441,8.063671,9.251195,0.104720,-0.286847,0.150152
8.320,440200,-0.919373,7.096414,9.801862,0.091663,-0.215168,0.043433
8.340,440220,-1.072602,6.526594,10.026917,-0.154548,-0.035040,-0.057156
8.360,440240,-0.694318,6.124368,9.356541,-0.280985,0.094861,-0.093662
8.380,440260,0.153229,5.951985,8.868123,-0.232355,0.108850,-0.065550
8.400,440280,0.842759,5.631162,7.977480,-0.138028,0.027845,0.026247
8.420,440300,0.129287,4.979939,7.915231,-0.147620,-0.028378,0.039703
8.440,440320,-0.541090,4.841076,8.346188,-0.281917,0.030910,-0.045565
8.460,440340,-0.909797,5.037400,8.576031,-0.479233,0.193319,-0.185058
8.480,440360,-1.144428,5.358223,9.385271,-0.559704,0.310029,-0.309763
8.500,440380,-1.187524,5.578490,9.198523,-0.349732,0.200779,-0.364121
8.520,440400,0.004788,6.181829,8.341399,-0.260467,0.166273,-0.358259
8.540,440420,0.277727,6.100426,8.236053,-0.162142,0.095127,-0.295240
8.560,440440,0.076614,5.568913,7.939173,-0.084735,0.014389,-0.208773
8.580,440460,-0.407014,5.032612,7.939173,-0.046231,-0.023315,-0.173867
8.600,440480,-0.397437,4.908113,7.910442,-0.113113,0.010126,-0.177864
8.620,440500,-0.684742,4.673482,7.867347,-0.275922,0.143490,-0.148553
8.640,440520,-0.416591,4.774038,7.805098,-0.285115,0.172002,-0.089931
8.660,440540,-0.373495,4.750096,7.996634,-0.234087,0.170003,0.001199
8.680,440560,-0.536301,4.936844,7.852982,-0.184392,0.047031,0.052893
8.700,440580,-1.230620,4.572925,8.561666,0.101522,-0.122440,0.079939
8.720,440600,-2.035071,4.223372,8.097190,0.146021,-0.158012,0.022516
8.740,440620,-1.589750,4.888960,8.748413,0.117643,-0.095527,-0.057689
8.760,440640,-0.952892,5.731719,9.318233,0.086201,-0.025980,-0.069946
8.780,440660,-0.258574,6.617573,9.241618,0.069946,-0.030510,-0.003331
8.800,440680,0.335188,7.335834,8.829816,0.131632,-0.086201,0.082470
8.820,440700,0.488417,7.742848,9.035717,0.182127,-0.147354,0.167072
8.840,440720,0.723049,8.279149,9.615114,0.003198,-0.039037,0.207708
8.860,440740,-1.431733,7.479486,9.476251,0.079539,-0.039703,0.302035
8.880,440760,-1.278504,8.461109,9.332599,-0.027179,0.114046,0.181861
8.900,440780,-2.140416,7.977480,9.323022,-0.044100,0.193185,-0.034374
8.920,440800,-2.011129,7.623138,8.777143,-0.051427,0.231556,-0.250608
8.940,440820,-0.962469,7.747637,7.785944,-0.049962,0.242747,-0.274323
8.960,440840,-0.076614,8.001422,7.038953,-0.001599,0.146421,-0.109383
8.980,440860,-0.981623,7.144298,7.067683,0.037305,0.059021,0.092729
9.000,440880,-1.920150,6.445191,7.240066,0.034507,0.051694,0.154149
9.020,440900,-2.331953,6.234501,7.742848,-0.069413,0.137628,0.064084
9.040,440920,-2.173935,6.148310,8.269572,-0.246611,0.266196,-0.059688
9.060,440940,-2.149993,5.640739,8.350976,-0.404890,0.325217,-0.081271
9.080,440960,-1.082179,6.780379,7.805098,-0.465110,0.360923,-0.110049
9.100,440980,-0.560243,7.335834,7.321469,-0.324285,0.306965,0.018119
9.120,441000,-0.943315,7.000646,7.177817,-0.174400,0.234221,0.160277
9.140,441020,-1.197101,6.651093,7.082048,-0.051294,0.177997,0.239150
9.160,441040,-1.527501,5.923255,7.072472,0.035040,0.178530,0.270459
9.180,441060,-1.862689,5.434838,7.125144,0.051028,0.212371,0.230757
9.200,441080,-1.862689,5.410896,6.943185,-0.030910,0.286580,0.126303
9.220,441100,-1.278504,5.904101,6.876147,-0.060620,0.291243,0.050628
9.240,441120,-1.379060,5.640739,6.531382,-0.062219,0.221430,0.067282
9.260,441140,-1.556231,5.386954,6.220136,-0.060354,0.124571,0.116044
9.280,441160,-1.900996,5.396531,6.148310,-0.041568,0.037838,0.167472
9.300,441180,-2.193089,5.851429,6.497863,-0.009326,-0.031576,0.175066
9.320,441200,-1.814805,6.799533,6.789956,0.016254,-0.061553,0.132832
9.340,441220,-1.493982,7.287950,7.647080,0.037305,-0.108317,0.119109
9.360,441240,-0.952892,7.881712,8.116343,0.010392,-0.101256,0.179995
9.380,441260,-0.488417,8.705317,8.499416,0.055957,-0.115778,0.336809
9.400,441280,0.110133,9.777920,8.595184,0.110582,-0.108317,0.371715
9.420,441300,-0.584185,8.231265,8.465898,0.098325,-0.122839,0.323485
9.440,441320,-0.512359,8.465898,9.227253,0.004130,-0.127236,0.200113
9.460,441340,-1.221043,7.742848,9.931149,-0.132698,-0.051028,0.092729
9.480,441360,-1.570596,6.464345,9.959879,-0.267928,0.036106,0.025714
9.500,441380,-1.235408,6.081272,9.495404,-0.340406,0.070479,0.035706
9.520,441400,0.225055,6.813898,9.040505,-0.258202,0.035173,0.107384
9.540,441420,1.216254,6.804321,8.408437,-0.111115,-0.070879,0.256603
9.560,441440,0.550666,5.817910,7.967903,0.019052,-0.223162,0.375179
9.580,441460,-0.531513,5.353435,8.164227,-0.032375,-0.226493,0.340406
9.600,441480,-1.489193,5.315128,8.781932,-0.118709,-0.106718,0.172801
9.620,441500,-2.006341,5.631162,9.567230,-0.106985,-0.050628,0.043167
9.640,441520,-2.059013,5.937620,8.480263,-0.150551,0.137361,-0.093662
9.660,441540,-1.067814,6.445191,8.063671,-0.130833,0.268861,-0.202378
9.680,441560,-0.445322,6.181829,7.800309,-0.017187,0.208507,-0.236219
9.700,441580,0.392649,6.114791,7.302315,-0.015855,0.114179,-0.154015
9.720,441600,0.105345,5.645528,7.556100,-0.018786,0.033308,0.000533
9.740,441620,-0.387861,5.377377,7.584831,-0.080205,0.025447,0.128435
9.760,441640,-0.713472,5.252879,7.570466,-0.242348,0.111781,0.135896
9.780,441660,-0.890643,5.104438,7.493851,0.085934,-0.089531,0.132565
9.800,441680,-0.306458,5.185841,7.752425,0.002931,-0.087266,0.101655
9.820,441700,-0.656011,4.764462,7.943961,-0.020384,-0.063018,0.076741
9.840,441720,-1.599327,4.228160,8.240842,-0.022516,-0.068481,0.053825
9.860,441740,-1.714248,4.290410,8.226477,0.007328,-0.134830,0.004530
9.880,441760,-1.503559,4.673482,8.647857,-0.062219,-0.122839,-0.055824
9.900,441780,-0.387861,5.468357,8.465898,-0.190521,-0.051028,-0.082603
9.920,441800,-0.196325,6.191406,8.585608,0.144289,-0.251940,-0.039969
9.940,441820,1.221043,7.297527,8.939949,0.111115,-0.299371,0.017986
9.960,441840,1.283292,8.073248,9.576807,0.147487,-0.341338,0.107518
9.980,441860,1.230620,8.508993,9.730036,0.152949,-0.336942,0.188522
10.000,441880,0.555455,8.719683,9.514558,0.090997,-0.291243,0.212770
10.020,441900,0.507571,8.920795,9.586384,-0.025714,-0.172135,0.087133
10.040,441920,-0.359130,8.121132,8.719683,0.190387,-0.253939,0.003198
10.060,441940,0.201113,8.518570,8.283937,0.153349,-0.201446,-0.075009
10.080,441960,0.268151,8.599973,7.311892,0.252606,-0.197315,-0.045832
10.100,441980,0.933739,8.657434,6.890512,0.452720,-0.257403,0.101655
10.120,442000,0.191536,7.326257,6.028600,0.523998,-0.310962,0.392100
10.140,442020,-1.259350,6.473921,6.143522,0.607135,-0.328548,0.510276
10.160,442040,-1.312023,6.737284,7.412448,1.089432,-0.692270,0.473637
10.180,442060,-1.288081,6.502652,7.963115,1.291943,-1.338974,0.238084
10.200,442080,-1.048660,7.048530,9.428367,1.239583,-1.172035,0.235153
10.220,442100,-0.359130,7.848193,6.239290,0.536389,-0.804983,0.303101
10.240,442120,0.047884,8.772355,6.081272,-0.082870,0.209040,0.376112
10.260,442140,-0.282516,9.040505,4.702212,-0.585685,1.102355,0.416214
10.280,442160,-0.727837,9.184157,4.074931,-1.221997,2.170070,0.487093
10.300,442180,-1.532289,8.978256,6.780379,-1.574527,2.922560,0.812444
10.320,442200,-1.551443,8.542512,6.651093,-0.205443,2.000467,1.382008
10.340,442220,-2.226608,7.934384,6.153099,0.430870,1.695634,1.667922
10.360,442240,-1.359907,7.594408,6.062119,0.721714,1.782234,1.783833
10.380,442260,-0.818817,6.947973,6.138733,0.547714,1.959698,1.774107
10.400,442280,-0.181959,6.804321,6.081272,0.468841,1.914000,1.758652
10.420,442300,-0.521936,6.172252,6.718130,0.678413,1.554675,1.771443
10.440,442320,0.038307,5.880159,5.717354,0.799654,1.206675,1.638078
10.460,442340,1.422156,6.162675,6.612785,0.710789,1.046665,1.398528
10.480,442360,2.738967,6.694188,6.732495,0.569963,0.740766,1.296606
10.500,442380,3.356671,7.398083,6.469133,0.372248,0.413816,1.239717
10.520,442400,3.524265,7.867347,6.598420,0.209306,0.240216,1.158446
10.540,442420,4.601655,8.954314,7.005434,0.100856,0.130167,1.006429
10.560,442440,4.874595,9.184157,6.880936,-0.068348,0.107518,0.910502
10.580,442460,5.477933,9.849746,8.068460,-0.254472,0.072744,0.812977
10.600,442480,1.709460,7.800309,8.743625,-0.138960,-0.096060,0.745962
10.620,442500,1.187524,6.598420,8.513782,-0.305366,0.111781,0.391300
10.640,442520,0.656011,5.607220,8.619126,-0.429538,0.172002,0.130167
10.660,442540,2.839523,6.617573,7.647080,-0.436732,0.125504,-0.058222
10.680,442560,4.055778,7.690176,6.914454,-0.298838,-0.037838,0.043966
10.700,442580,2.408567,7.302315,6.387730,-0.170403,-0.173600,0.117776
10.720,442600,1.948880,7.666234,5.851429,-0.161609,-0.030377,-0.037704
10.740,442620,1.000776,7.651869,7.522582,0.002398,0.019452,-0.171202
10.760,442640,1.441309,7.996634,6.382942,0.106452,0.029444,-0.304833
10.780,442660,2.015918,8.169016,6.531382,0.138427,0.063152,-0.415282
10.800,442680,2.398990,7.891289,6.272809,0.205576,-0.021850,-0.446858
10.820,442700,2.389413,7.541735,5.808333,0.211438,-0.145888,-0.425807
10.840,442720,1.857901,6.842628,5.664681,0.123772,-0.166539,-0.393165
10.860,442740,2.303222,7.110779,5.583278,0.048496,-0.187989,-0.335343
10.880,442760,1.924938,7.182605,5.597643,-0.018119,-0.197449,-0.231156
10.900,442780,0.746991,7.388506,5.808333,-0.058355,-0.204377,-0.204110
10.920,442800,0.684742,8.245630,6.215348,-0.050761,-0.191187,-0.289245
10.940,442820,0.972046,8.049306,6.392519,-0.067015,-0.151750,-0.229957
10.960,442840,-0.119710,7.077260,6.861782,-0.024914,-0.177064,-0.033841
10.980,442860,-0.162806,6.967127,6.042965,0.054758,-0.233421,0.074210
11.000,442880,-0.076614,6.574478,6.325481,0.066616,-0.184792,0.122306
11.020,442900,0.282516,6.593631,6.612785,0.000400,-0.113513,0.158412
11.040,442920,0.478840,6.612785,6.756437,-0.070213,-0.058755,0.165074
11.060,442940,0.723049,6.521805,6.569689,-0.168804,0.014123,0.114845
11.080,442960,1.288081,6.780379,6.732495,-0.244346,0.071945,0.051028
11.100,442980,2.863465,8.145074,7.560889,-0.301236,0.167072,-0.031176
11.120,443000,4.625597,9.782708,7.733272,-0.367185,0.217433,0.171335
11.140,443020,4.697424,10.735600,7.939173,-0.353329,0.224761,0.307364
11.160,443040,3.979163,11.099519,7.412448,-0.404490,0.314292,0.233155
11.180,443060,2.542642,10.304645,7.345411,-0.139227,0.172401,0.050361
11.200,443080,2.054225,8.983045,5.904101,-0.022116,0.121507,-0.142824
11.220,443100,2.806004,8.427590,5.142745,0.093928,0.126170,-0.157213
11.240,443120,2.719813,8.858546,4.922479,0.105786,0.117643,-0.018919
11.260,443140,1.944092,8.566454,5.176264,0.149485,0.127769,0.007594
11.280,443160,1.561020,7.757214,5.822699,0.094594,0.135896,-0.051827
11.300,443180,1.163582,7.043741,6.100426,-0.043433,0.165340,-0.129368
11.320,443200,0.837971,6.675035,5.980716,-0.172668,0.202645,-0.237951
11.340,443220,1.853112,7.283162,5.698200,-0.257403,0.176531,-0.310296
11.360,443240,2.418144,7.757214,5.540183,-0.260334,0.020118,-0.302968
11.380,443260,1.963245,7.513005,5.396531,-0.166139,-0.151351,-0.278453
11.400,443280,1.201889,7.110779,5.554548,-0.115378,-0.246611,-0.346801
11.420,443300,1.130063,6.971915,5.401319,-0.093928,-0.301769,-0.456450
11.440,443320,1.091756,6.751649,5.449203,-0.187590,-0.310562,-0.495087
11.460,443340,0.521936,6.761226,5.372589,-0.248343,-0.325084,-0.507611
11.480,443360,0.038307,7.010222,5.521029,-0.279519,-0.284182,-0.622723
11.500,443380,0.421380,7.206547,5.875371,-0.308164,-0.274323,-0.743830
11.520,443400,0.857124,7.278373,5.942409,-0.357193,-0.368651,-0.743164
11.540,443420,1.039083,7.613562,5.832275,-0.394364,-0.492956,-0.667355
11.560,443440,0.866701,7.699753,5.865794,-0.385038,-0.606602,-0.662959
11.580,443460,1.637634,8.101978,5.904101,-0.371049,-0.738634,-0.756487
11.600,443480,2.121263,8.561666,5.928043,-0.396096,-0.914632,-0.792193
11.620,443500,1.570596,8.786720,6.244078,-0.427939,-1.054525,-0.798055
11.640,443520,2.169147,9.442732,6.349423,-0.439796,-1.100890,-0.828299
11.660,443540,2.638410,9.710882,6.885724,-0.411285,-1.241582,-0.950605
11.680,443560,3.303998,10.132261,7.441179,-0.417147,-1.440629,-1.138861
11.700,443580,1.972822,9.270349,7.891289,-0.455118,-1.609833,-1.269960
11.720,443600,3.208230,10.879252,8.221688,-0.528129,-1.651268,-1.480466
11.740,443620,1.991976,9.323022,8.360553,-0.571029,-1.685109,-1.514839
11.760,443640,0.751779,6.900089,7.560889,-0.743164,-1.652334,-1.558939
11.780,443660,-0.148441,5.841852,7.340622,-0.823502,-1.590781,-1.569198
11.800,443680,1.034295,6.143522,6.722919,-0.832029,-1.499917,-1.474870
11.820,443700,1.086968,6.157887,6.445191,-0.810312,-1.443827,-1.257969
11.840,443720,-0.162806,5.530606,7.091625,-0.842155,-1.337242,-1.163242
11.860,443740,-0.325611,5.813122,7.809886,-0.889985,-1.173634,-1.141659
11.880,443760,-0.689530,5.755661,8.643068,-0.951138,-0.959265,-1.064118
11.900,443780,-0.536301,5.650316,8.968679,-1.010293,-0.741299,-0.965793
11.920,443800,0.225055,6.277597,8.916007,-1.011092,-0.601139,-0.860674
11.940,443820,1.192312,6.775591,8.705317,-0.877994,-0.563035,-0.708790
11.960,443840,1.393425,6.569689,8.647857,-0.717450,-0.602472,-0.557972
11.980,443860,1.455675,6.076484,8.451532,-0.573161,-0.654299,-0.392766
12.000,443880,1.072602,5.453991,8.590396,-0.450055,-0.691870,-0.233421
12.020,443900,1.168370,5.583278,8.456321,-0.395031,-0.752357,-0.154548
12.040,443920,1.240196,5.286397,8.202535,-0.337741,-0.745029,-0.142025
12.060,443940,1.623269,5.559336,7.690176,-0.388636,-0.679479,-0.205842
12.080,443960,1.537078,5.281609,7.709330,-0.447524,-0.591014,-0.236885
12.100,443980,1.110910,4.668694,7.704541,-0.182793,-0.635913,-0.223962
12.120,444000,0.799663,4.237737,7.982268,-0.018786,-0.580755,-0.178930
12.140,444020,0.421380,4.510676,8.418014,0.067282,-0.523332,-0.197848
12.160,444040,2.087744,5.837064,7.920019,0.057289,-0.497752,-0.090997
12.180,444060,1.762132,6.081272,8.494628,-0.051028,-0.370250,-0.008793
12.200,444080,1.900996,6.809110,8.762778,0.086201,-0.387703,-0.083669
12.220,444100,2.480393,7.680599,8.599973,0.313493,-0.496153,-0.171469
12.240,444120,3.256114,8.317456,7.814674,0.401559,-0.571296,-0.098191
12.260,444140,3.112462,8.772355,8.030152,0.412617,-0.571828,0.011325
12.280,444160,2.418144,8.441956,8.130709,0.377044,-0.490158,0.122173
12.300,444180,1.819593,8.667010,9.021352,0.329214,-0.405023,0.106052
12.320,444200,1.532289,8.839393,9.600749,0.193319,-0.302701,0.001332
12.340,444220,0.689530,8.221688,10.002975,-0.090864,-0.098591,-0.093662
12.360,444240,0.919373,8.379706,8.839393,-0.237018,0.004930,-0.176265
12.380,444260,1.642422,8.556877,7.354988,-0.145888,-0.070213,-0.117110
12.400,444280,1.771709,8.188169,6.914454,0.033841,-0.199047,-0.006395
12.420,444300,1.484405,7.134721,6.746861,0.084735,-0.218233,0.068747
12.440,444320,1.101333,5.956774,6.995857,0.091663,-0.218100,0.138294
12.460,444340,1.273715,5.813122,7.115568,-0.047697,-0.170136,0.198248
12.480,444360,1.197101,5.884948,7.426814,-0.193319,-0.075409,0.189322
12.500,444380,1.082179,5.779603,7.527370,-0.332279,0.081538,0.103654
12.520,444400,0.976834,5.889736,7.795521,-0.500017,0.213037,0.044366
12.540,444420,1.268927,6.430826,7.249643,-0.535856,0.234087,0.003597
12.560,444440,1.853112,7.082048,6.880936,-0.454185,0.209040,-0.089665
12.580,444460,2.542642,6.952762,6.694188,-0.260734,0.094061,-0.104054
12.600,444480,2.236184,6.493075,6.713342,-0.152550,-0.025580,-0.045165
12.620,444500,1.398214,5.961562,7.077260,-0.114712,-0.051161,0.011191
12.640,444520,1.340753,5.837064,7.484274,-0.100590,-0.054225,0.009459
12.660,444540,1.537078,5.669470,7.762002,-0.079139,-0.058489,-0.000400
12.680,444560,1.412579,5.181053,7.747637,-0.130034,-0.051694,0.063285
12.700,444580,0.699107,4.424485,7.728483,-0.158545,-0.077807,0.167072
12.720,444600,-0.100556,4.098873,8.221688,-0.212104,-0.102188,0.175998
12.740,444620,0.105345,5.449203,8.796297,-0.285914,0.003597,-0.045299
12.760,444640,1.024718,6.320693,8.896853,-0.338807,0.027712,-0.116711
12.780,444660,1.426944,6.579266,8.547300,-0.315758,-0.065816,-0.087933
12.800,444680,2.164358,8.140285,8.599973,-0.179063,-0.153749,-0.035040
12.820,444700,2.944868,9.203311,8.844181,0.027179,-0.227959,-0.104320
12.840,444720,2.753332,8.092402,9.404425,-0.002398,-0.088732,-0.201312
12.860,444740,2.207454,7.158663,9.643845,-0.326150,-0.012923,-0.192786
12.880,444760,1.910573,5.793968,9.490616,-0.571296,0.116044,-0.097259
12.900,444780,1.723825,4.697424,8.992621,-0.762216,0.241149,0.057556
12.920,444800,2.063802,5.142745,9.275137,-0.810179,0.332412,0.112580
12.940,444820,2.489970,5.923255,10.026917,-0.809513,0.425807,0.087000
12.960,444840,2.652776,5.928043,10.323798,-0.847884,0.580888,0.060487
12.980,444860,3.021482,5.956774,10.093954,-0.794991,0.588349,0.063018
13.000,444880,3.428497,5.492299,9.662998,-0.633515,0.580355,0.063951
13.020,444900,3.519476,5.367800,9.232041,-0.399161,0.478034,0.069413
13.040,444920,3.064578,4.774038,9.021352,-0.151351,0.355994,0.037971
13.060,444940,2.331953,4.232949,8.561666,-0.000933,0.230090,-0.037038
13.080,444960,2.269703,4.108450,8.101978,0.077541,0.101389,-0.090331
13.100,444980,2.178724,4.127604,7.848193,0.141092,0.030243,-0.062485
13.120,445000,1.752556,4.132392,7.920019,0.161077,0.049962,-0.039170
13.140,445020,1.867477,4.209007,8.034941,0.163741,0.126170,-0.072345
13.160,445040,1.824382,4.122815,7.939173,0.116444,0.192386,-0.124172
13.180,445060,1.987187,4.309563,7.967903,0.062619,0.180528,-0.155214
13.200,445080,1.963245,4.165911,8.087613,0.060354,0.196116,-0.131632
13.220,445100,1.570596,3.883395,7.905654,0.068747,0.178530,-0.064884
13.240,445120,1.043872,3.600879,8.298303,0.069014,0.222763,-0.015055
13.260,445140,0.914585,4.601655,9.035717,0.009193,0.261533,-0.034374
13.280,445160,1.584962,6.162675,9.552865,-0.020384,0.236352,-0.081538
13.300,445180,2.106898,6.727707,9.739613,0.034107,0.227159,-0.079939
13.320,445200,2.327164,6.775591,9.600749,0.131233,0.187723,-0.032775
13.340,445220,2.638410,6.924031,9.548077,0.181461,0.114179,0.067815
13.360,445240,2.638410,7.982268,10.208876,0.178263,0.021450,0.167738
13.380,445260,3.007117,8.619126,10.443508,0.223162,0.031309,0.236752
13.400,445280,2.068590,8.403648,10.376471,0.161609,0.042234,0.263265
13.420,445300,1.546654,8.700529,10.433931,0.080205,0.122306,0.168404
13.440,445320,0.258574,7.426814,9.777920,0.029711,0.267528,0.041568
13.460,445340,-0.445322,6.641516,8.954314,-0.021583,0.323619,-0.069147
13.480,445360,-0.172383,6.598420,8.125920,0.017986,0.315358,-0.145222
13.500,445380,1.010353,6.885724,7.177817,0.155214,0.168804,-0.106718
13.520,445400,0.833182,6.473921,6.660669,0.264864,0.075809,-0.001865
13.540,445420,-0.454898,5.559336,6.986280,0.247144,0.111115,0.055824
13.560,445440,-0.775721,5.741296,7.838616,0.092729,0.205176,0.004796
13.580,445460,-0.603339,5.932832,8.609550,-0.103787,0.315092,-0.084602
13.600,445480,-0.632069,5.650316,8.398860,-0.284848,0.402358,-0.144956
13.620,445500,-0.028730,6.382942,7.900866,-0.354528,0.356793,-0.135230
13.640,445520,0.560243,6.742072,7.206547,-0.307631,0.342538,-0.076342
13.660,445540,0.857124,6.818686,6.971915,-0.219432,0.256737,0.020518
13.680,445560,0.593762,6.469133,7.144298,-0.113646,0.147887,0.050761
13.700,445580,0.646434,6.205771,7.465121,-0.054492,0.077407,0.033175
13.720,445600,0.723049,5.889736,7.800309,-0.063418,0.037971,0.055824
13.740,445620,0.660800,5.592855,7.910442,-0.148553,0.020917,0.127902
13.760,445640,0.201113,5.219360,7.809886,-0.227026,0.001865,0.205309
13.780,445660,-0.598550,4.783615,7.718906,-0.248876,0.026646,0.190654
13.800,445680,-1.307234,4.180276,7.671022,-0.242481,0.063818,0.085002
13.820,445700,-1.661576,4.520253,8.058883,-0.279253,0.069014,-0.050894
13.840,445720,-0.833182,6.014235,8.724471,-0.264730,0.062086,-0.194518
13.860,445740,0.158017,6.584054,8.901642,-0.139760,0.017587,-0.206375
13.880,445760,0.928950,7.120356,8.801085,-0.044366,-0.102855,-0.079806
13.900,445780,1.086968,7.752425,9.193734,0.062086,-0.200113,0.038237
13.920,445800,1.786075,8.485051,9.572019,0.180928,-0.285381,0.018786
13.940,445820,1.259350,7.618350,10.208876,0.203711,-0.301502,-0.036905
13.960,445840,1.235408,7.206547,10.864887,0.038371,-0.231289,-0.170003
13.980,445860,0.565032,5.420473,10.931925,-0.212770,-0.058622,-0.182127
14.000,445880,0.248997,4.692636,10.132261,-0.410619,0.013590,-0.075409
14.020,445900,1.110910,5.449203,9.198523,-0.368118,0.073144,0.011058
14.040,445920,1.924938,5.956774,9.078813,-0.224095,0.073677,0.071412
14.060,445940,1.465251,5.707777,9.557653,-0.198115,0.054891,0.080072
14.080,445960,0.895431,5.444415,9.892841,-0.253806,0.070080,0.038371
14.100,445980,0.919373,5.679047,10.046070,-0.230490,0.152417,-0.049695
14.120,446000,1.417367,5.525817,9.337387,-0.091397,0.222896,-0.114046
14.140,446020,1.450886,5.027823,8.872911,-0.009060,0.196383,-0.087266
14.160,446040,1.474828,5.128380,8.465898,0.050495,0.059155,-0.057156
14.180,446060,1.053449,4.984728,8.427590,0.057423,0.001998,-0.068214
14.200,446080,1.082179,5.214571,8.394072,0.110715,-0.037172,-0.097126
14.220,446100,1.221043,5.181053,8.207323,0.153482,-0.050228,-0.084735
14.240,446120,1.273715,5.085284,7.915231,0.188522,-0.066216,-0.039836
14.260,446140,1.216254,5.104438,7.785944,0.170403,-0.045299,0.003597
14.280,446160,1.225831,5.358223,8.125920,0.132965,-0.025447,0.019185
14.300,446180,1.307234,5.477933,8.044518,0.141092,-0.032508,0.022783
14.320,446200,1.369483,5.176264,7.805098,0.154149,-0.044366,0.027312
14.340,446220,1.264138,4.644751,7.766790,0.132965,-0.048629,0.056890
14.360,446240,0.976834,4.481946,7.694964,0.114979,-0.086734,0.096992
14.380,446260,1.067814,4.793192,8.001422,0.083669,-0.105386,0.101655
14.400,446280,1.417367,5.070919,8.341399,0.076874,-0.073410,0.128302
14.420,446300,1.503559,5.137957,8.384495,0.066882,-0.042501,0.182793
14.440,446320,1.642422,5.798757,8.705317,0.023049,-0.019185,0.208507
14.460,446340,2.111686,6.737284,8.901642,0.035706,-0.008260,0.182660
14.480,446360,2.461239,7.220912,8.825027,0.114179,-0.051294,0.158412
14.500,446380,2.446874,7.374141,9.155427,0.180662,-0.132565,0.167072
14.520,446400,3.002329,8.312668,10.079589,0.204377,-0.183593,0.114046
14.540,446420,2.920926,8.054094,10.299856,0.158279,-0.207574,0.121640
14.560,446440,2.896984,8.801085,10.654198,0.092196,-0.301902,0.067681
14.580,446460,2.394202,8.805874,10.151415,-0.012124,-0.303501,-0.056890
14.600,446480,1.288081,7.809886,8.614338,-0.121640,-0.289911,-0.166006
14.620,446500,0.186748,6.895301,7.374141,-0.139893,-0.293908,-0.296839
14.640,446520,-0.608127,6.507440,7.254431,-0.080205,-0.316158,-0.410752
14.660,446540,-0.545878,6.263232,6.933608,0.033308,-0.314026,-0.445792
14.680,446560,-0.445322,6.105214,6.799533,0.025181,-0.247011,-0.333211
14.700,446580,-0.598550,6.359000,7.283162,-0.034773,-0.116577,-0.162942
14.720,446600,-0.430956,6.880936,8.030152,-0.072345,0.040103,-0.080205
14.740,446620,-0.555455,6.670246,8.317456,-0.135230,0.176665,-0.064351
14.760,446640,-0.651223,6.363788,8.279149,-0.188655,0.269793,-0.083003
14.780,446660,-0.110133,6.306327,8.216900,-0.190521,0.342005,-0.096992
14.800,446680,0.775721,6.588843,7.819463,-0.145089,0.371715,-0.043300
14.820,446700,1.379060,6.914454,7.273585,-0.086467,0.337741,0.084069
14.840,446720,1.058237,6.789956,7.043741,-0.020518,0.262865,0.163608
14.860,446740,0.689530,6.531382,7.129933,0.075942,0.206775,0.152949
14.880,446760,0.632069,6.009446,7.201759,0.137095,0.201179,0.114046
14.900,446780,0.383072,5.578490,7.163452,0.074876,0.224228,0.129634
14.920,446800,0.162806,5.707777,7.206547,-0.019851,0.245945,0.140559
14.940,446820,-0.038307,6.019023,7.211336,-0.062485,0.257403,0.106985
14.960,446840,-0.282516,5.841852,7.125144,-0.056090,0.245412,0.066083
14.980,446860,-0.272939,5.650316,6.708553,-0.016654,0.181194,0.058222
15.000,446880,0.009577,5.995081,6.694188,0.048896,0.106185,0.044233
15.020,446900,0.622492,6.823475,6.986280,0.108184,0.036505,0.016920
15.040,446920,0.742203,7.110779,7.599196,0.098058,0.000666,0.029178
15.060,446940,0.627281,7.340622,8.169016,0.052626,-0.045032,0.046098
15.080,446960,0.794875,8.034941,8.336611,0.042900,-0.101522,0.015988
15.100,446980,1.316811,8.892065,8.604761,0.089531,-0.143623,-0.059554
15.120,447000,2.178724,9.643845,8.863335,0.131366,-0.192119,-0.185325
15.140,447020,1.810017,9.131485,9.275137,0.158279,-0.280052,-0.230757
15.160,447040,1.862689,9.246407,10.017340,0.086467,-0.299371,-0.328415
15.180,447060,1.374272,7.613562,9.706094,-0.040236,-0.248210,-0.326550
15.200,447080,1.000776,6.335058,8.753201,-0.152816,-0.286980,-0.226760
15.220,447100,1.182736,6.114791,7.704541,-0.126170,-0.334677,-0.123106
15.240,447120,1.666364,6.124368,7.311892,-0.037038,-0.358658,-0.037838
15.260,447140,1.010353,5.664681,7.852982,-0.077940,-0.363455,0.029577
15.280,447160,0.732626,6.138733,8.432379,-0.173334,-0.293775,-0.013190
15.300,447180,0.670376,6.411672,8.604761,-0.229158,-0.157746,-0.093262
15.320,447200,0.263362,5.736507,8.422802,-0.293508,-0.026779,-0.144689
15.340,447220,0.119710,5.880159,8.350976,-0.351730,0.039037,-0.204643
15.360,447240,0.909797,6.488286,7.982268,-0.303767,0.094328,-0.278320
15.380,447260,1.441309,6.478710,7.450756,-0.217833,0.062619,-0.273391
15.400,447280,1.599327,6.344635,7.412448,-0.158945,-0.018919,-0.188256
15.420,447300,1.719037,6.033388,7.331046,-0.099524,-0.094594,-0.080338
15.440,447320,1.474828,5.803545,7.354988,-0.131100,-0.155214,0.013456
15.460,447340,1.177947,5.822699,7.283162,-0.182660,-0.185058,0.025447
15.480,447360,1.144428,5.803545,7.412448,-0.208507,-0.170003,0.001466
15.500,447380,1.149217,5.559336,7.402872,-0.220364,-0.139626,0.005596
15.520,447400,1.115698,5.406107,7.532158,-0.226227,-0.098724,0.032775
15.540,447420,1.216254,5.358223,7.479486,-0.201845,-0.047963,0.067548
15.560,447440,1.417367,5.252879,7.436390,-0.147087,-0.016254,0.122573
15.580,447460,1.522712,5.195418,7.594408,-0.065017,-0.004130,0.193052
15.600,447480,1.929727,5.492299,8.010999,-0.000799,0.022649,0.237418
15.620,447500,2.312799,5.736507,8.346188,0.012524,0.078207,0.286314
15.640,447520,2.193089,6.440403,8.681376,-0.020651,0.096992,0.315758
15.660,447540,2.231396,7.469909,8.882488,0.013723,0.105253,0.247144
15.680,447560,2.250550,7.953538,9.136273,0.118576,0.088332,0.166806
15.700,447580,2.647987,8.647857,9.533711,0.167338,0.054092,0.092063
15.720,447600,2.461239,8.322245,9.524135,0.174000,0.062086,0.126303
15.740,447620,1.982399,9.002198,10.079589,0.057023,0.068614,0.138827
15.760,447640,1.254562,8.585608,9.758766,-0.045299,0.177864,0.088599
15.780,447660,-0.191536,7.278373,8.671799,-0.153349,0.232489,0.027046
15.800,447680,-0.718261,6.957550,7.785944,-0.122573,0.234354,-0.089798
15.820,447700,-0.148441,7.311892,7.359776,0.043700,0.202911,-0.195850
15.840,447720,0.387861,6.957550,7.307104,0.158678,0.178397,-0.177730
15.860,447740,-0.004788,6.402095,8.039729,0.072611,0.209306,-0.051960
15.880,447760,-0.167594,6.770802,8.595184,-0.077407,0.304433,0.041035
15.900,447780,0.000000,6.981492,8.576031,-0.181727,0.432469,0.047430
15.920,447800,0.033519,6.569689,8.116343,-0.245145,0.486827,0.035839
15.940,447820,0.239420,6.483498,7.532158,-0.235553,0.454718,0.014389
15.960,447840,0.756568,6.560112,7.077260,-0.139360,0.392632,0.015322
15.980,447860,0.799663,6.301539,6.909666,-0.048230,0.290844,0.046631
16.000,447880,0.809240,6.200983,6.804321,0.009593,0.184525,0.051827
16.020,447900,0.699107,5.894525,6.751649,0.033041,0.108184,0.055291
16.040,447920,0.761356,5.884948,6.775591,0.020518,0.067282,0.052227
16.060,447940,0.809240,5.832275,6.751649,-0.018652,0.065283,0.060753
16.080,447960,0.368707,5.789180,6.775591,-0.109916,0.061819,0.065017
16.100,447980,-0.004788,5.865794,7.101202,-0.165473,0.072345,0.030643
16.120,448000,-0.019154,6.028600,7.163452,-0.189188,0.075142,-0.015188
16.140,448020,-0.009577,6.138733,7.058106,-0.197715,0.058355,-0.026247
16.160,448040,0.105345,6.454768,7.101202,-0.166539,0.003064,-0.018919
16.180,448060,0.512359,7.038953,7.173028,-0.098058,-0.071012,-0.024115
16.200,448080,0.861913,7.460332,7.422025,-0.047697,-0.144556,-0.010525
16.220,448100,0.976834,7.656657,7.771579,-0.056224,-0.183459,0.011458
16.240,448120,1.072602,8.054094,8.312668,-0.130433,-0.198515,-0.009459
16.260,448140,1.168370,8.125920,8.590396,-0.183193,-0.248743,-0.017054
16.280,448160,1.651999,9.184157,8.470686,-0.208374,-0.355461,-0.067948
16.300,448180,2.427721,8.690952,7.431602,-0.124172,-0.403291,-0.118309
16.320,448200,1.829170,7.532158,7.896077,-0.150152,-0.512407,-0.107251
16.340,448220,1.388637,7.058106,9.069236,-0.334011,-0.528795,-0.131499
16.360,448240,0.057461,6.157887,9.892841,-0.612064,-0.373847,-0.095394
16.380,448260,-0.205901,5.702989,10.247183,-0.761949,-0.184658,-0.129368
16.400,448280,0.995988,6.325481,9.428367,-0.664957,-0.092462,-0.224228
16.420,448300,2.863465,7.187394,8.346188,-0.323885,-0.157213,-0.204776
16.440,448320,3.002329,6.512228,8.331821,-0.059421,-0.277254,-0.083270
16.460,448340,1.455675,5.329493,9.193734,-0.091397,-0.346801,-0.042501
16.480,448360,0.521936,5.257667,9.897630,-0.229424,-0.268061,-0.167472
16.500,448380,0.766145,5.746084,10.022128,-0.319622,-0.103521,-0.304167
16.520,448400,1.244985,6.191406,9.418790,-0.404490,-0.007061,-0.334544
16.540,448420,1.422156,6.277597,8.786720,-0.378377,0.018652,-0.303234
16.560,448440,1.776498,5.913678,8.269572,-0.268328,0.009193,-0.274190
16.580,448460,1.709460,5.444415,7.953538,-0.197182,-0.058222,-0.224894
16.600,448480,1.374272,5.080496,7.838616,-0.141492,-0.111515,-0.179462
16.620,448500,1.039083,5.061342,7.699753,-0.096726,-0.125637,-0.176665
16.640,448520,0.885855,5.123591,7.690176,-0.057822,-0.121107,-0.196783
16.660,448540,1.048660,5.027823,7.723695,-0.001732,-0.112980,-0.202911
16.680,448560,1.364695,4.955997,7.709330,-0.023982,-0.091796,-0.168538
16.700,448580,1.584962,4.984728,7.541735,-0.049695,-0.092063,-0.097525
16.720,448600,1.690306,4.960786,7.422025,-0.029178,-0.091663,-0.040902
16.740,448620,1.498770,4.769250,7.350199,0.007061,-0.101922,0.014789
16.760,448640,1.493982,4.999093,7.680599,0.053692,-0.095260,0.053825
16.780,448660,1.637634,5.142745,8.259995,0.061020,-0.031176,0.097659
16.800,448680,1.675941,5.530606,8.805874,0.025847,0.013057,0.166006
16.820,448700,1.575385,6.033388,9.030929,-0.056090,0.100723,0.162675
16.840,448720,1.647211,6.670246,9.169792,-0.049962,0.147354,0.126037
16.860,448740,1.968034,7.244854,9.150639,0.009060,0.170003,0.085401
16.880,448760,2.480393,8.202535,9.662998,0.050495,0.172801,0.051028
16.900,448780,2.652776,8.140285,9.744401,0.067415,0.198248,0.120574
16.920,448800,1.848324,8.327033,10.017340,-0.002531,0.175865,0.201845
16.940,448820,1.082179,8.283937,9.983821,-0.055291,0.253806,0.161210
16.960,448840,0.105345,7.445967,9.639056,-0.120175,0.306432,0.099790
16.980,448860,-0.440533,6.904878,8.896853,-0.146288,0.348266,0.029444
17.000,448880,0.095768,6.914454,7.819463,-0.068348,0.366519,-0.019052
17.020,448900,0.545878,6.991069,7.077260,0.061553,0.306965,0.035173
17.040,448920,0.354342,6.708553,7.067683,0.112714,0.248343,0.122440
17.060,448940,-0.248997,6.469133,7.718906,0.080338,0.234487,0.152017
17.080,448960,-0.177171,6.876147,8.207323,-0.008260,0.285515,0.066482
17.100,448980,-0.081403,6.785168,8.092402,-0.115245,0.362123,-0.019718
17.120,449000,0.124498,6.502652,7.704541,-0.169470,0.376778,-0.038104
17.140,449020,0.804452,6.416461,7.149086,-0.168671,0.361856,0.004530
17.160,449040,0.895431,6.277597,6.775591,-0.150551,0.286714,0.107118
17.180,449060,0.703895,6.224925,6.756437,-0.083802,0.205043,0.147354
17.200,449080,0.416591,5.961562,7.010222,-0.040103,0.173600,0.114845
17.220,449100,0.153229,5.889736,7.517793,-0.054092,0.154681,0.052093
17.240,449120,0.287304,5.937620,7.833828,-0.097925,0.159478,-0.010792
17.260,449140,0.526724,5.947197,7.795521,-0.140559,0.153749,-0.022916
17.280,449160,0.555455,5.966351,7.766790,-0.148153,0.116444,-0.003464
17.300,449180,0.301669,5.702989,7.560889,-0.133631,0.069547,0.040369
17.320,449200,-0.162806,5.286397,7.441179,-0.117643,-0.000533,0.095660
17.340,449220,-0.670376,5.114015,7.603985,-0.102721,-0.058622,0.109916
17.360,449240,-0.560243,5.722142,8.001422,-0.082870,-0.070213,0.028645
17.380,449260,0.282516,6.564901,8.264784,-0.056224,-0.062219,-0.045832
17.400,449280,0.900220,7.105990,8.341399,-0.048896,-0.106851,-0.020118
17.420,449300,1.216254,7.666234,8.532935,-0.014256,-0.184259,0.031975
17.440,449320,1.240196,8.231265,9.126697,0.029577,-0.228225,0.042634
17.460,449340,1.637634,8.207323,9.696517,0.066216,-0.205309,-0.008793
17.480,449360,0.914585,8.006210,10.376471,0.002398,-0.247677,-0.045965
17.500,449380,1.795651,8.350976,10.601525,-0.023715,-0.156413,-0.210905
17.520,449400,1.551443,6.675035,9.797073,-0.136695,-0.044899,-0.187590
17.540,449420,1.302446,5.803545,8.729259,-0.169470,-0.099923,-0.088599
17.560,449440,1.331176,5.635951,8.183381,-0.041302,-0.143224,-0.056623
17.580,449460,1.206678,5.329493,8.518570,0.004397,-0.167472,-0.084202
17.600,449480,0.354342,5.214571,9.366117,-0.113646,-0.181994,-0.151617
17.620,449500,0.335188,5.856217,9.950302,-0.239816,-0.101256,-0.276855
17.640,449520,0.938527,6.569689,9.634268,-0.326550,0.034374,-0.352530
17.660,449540,0.703895,6.272809,8.992621,-0.355861,0.104853,-0.312694
17.680,449560,0.766145,6.162675,8.470686,-0.285914,0.126436,-0.302701
17.700,449580,1.058237,5.971139,8.073248,-0.180662,0.080205,-0.301369
17.720,449600,1.053449,5.578490,7.829040,-0.115112,-0.013456,-0.265930
17.740,449620,1.053449,5.410896,7.738060,-0.085534,-0.076874,-0.233821
17.760,449640,1.110910,5.319916,7.603985,-0.057556,-0.127103,-0.171469
17.780,449660,1.005565,5.291186,7.627927,-0.057956,-0.161210,-0.118842
17.800,449680,1.149217,5.635951,7.580042,-0.073943,-0.153749,-0.106585
17.820,449700,1.240196,5.511452,7.264008,-0.037438,-0.141625,-0.101922
17.840,449720,1.302446,5.157111,7.115568,0.018519,-0.140559,-0.062485
17.860,449740,1.015141,4.601655,7.268796,0.059421,-0.153749,0.010525
17.880,449760,0.588974,4.654328,7.560889,0.055691,-0.176531,0.039570
17.900,449780,0.828394,5.219360,7.838616,0.090997,-0.144956,-0.019585
17.920,449800,1.331176,5.693412,8.111555,0.116711,-0.100590,-0.035440
17.940,449820,1.082179,6.004658,8.580819,0.025714,-0.064084,0.016521
17.960,449840,0.679953,6.703765,9.011775,-0.043300,-0.026913,0.013590
17.980,449860,0.871489,7.244854,9.318233,-0.030910,0.011458,-0.034773
18.000,449880,1.685518,7.972692,9.548077,-0.000133,0.005462,-0.032642
18.020,449900,3.088520,8.853758,9.610326,0.014922,-0.018919,0.076208
18.040,449920,2.082955,8.532935,9.370906,-0.075542,-0.063152,0.325750
18.060,449940,0.699107,8.149862,9.744401,-0.132032,-0.011191,0.365187
18.080,449960,-0.598550,7.230489,9.624691,-0.243680,0.145222,0.238617
18.100,449980,-1.221043,6.517017,9.265560,-0.361190,0.241282,0.053825
18.120,450000,-0.847547,6.253655,8.312668,-0.290044,0.228625,-0.121507
18.140,450020,0.311246,6.799533,7.378930,-0.102988,0.109783,-0.195317
18.160,450040,0.541090,6.555324,7.599196,-0.000666,0.043167,-0.124038
18.180,450060,-0.086191,6.344635,8.681376,-0.077008,0.035040,-0.019985
18.200,450080,0.090980,6.967127,9.083601,-0.163075,0.102588,0.010259
18.220,450100,0.201113,6.718130,8.700529,-0.214236,0.193585,0.035839
18.240,450120,-0.301669,6.019023,8.489840,-0.269660,0.228092,0.081005
18.260,450140,-0.268151,6.110003,8.307879,-0.312694,0.252073,0.045698
18.280,450160,0.239420,6.258443,7.905654,-0.262332,0.255005,-0.003198
18.300,450180,1.043872,6.497863,7.331046,-0.129767,0.194384,0.003864
18.320,450200,1.302446,6.296751,6.962338,-0.011591,0.098458,0.077674
18.340,450220,0.814029,5.784391,6.813898,0.045698,0.015588,0.149885
18.360,450240,0.411803,5.506664,7.144298,0.060221,0.000133,0.154948
18.380,450260,0.660800,5.501875,7.144298,0.075009,0.000266,0.156413
18.400,450280,0.574608,5.233725,6.976704,0.051028,-0.006129,0.191453
18.420,450300,-0.043096,4.740520,7.010222,-0.033708,-0.015455,0.204643
18.440,450320,-0.790087,4.831499,7.479486,-0.121640,-0.002265,0.174000
18.460,450340,-0.933739,5.109226,7.924808,-0.161210,0.057689,0.079539
18.480,450360,-0.541090,5.688623,8.221688,-0.152550,0.068081,-0.026913
18.500,450380,0.545878,6.952762,8.667010,-0.101522,0.037838,-0.088199
18.520,450400,1.618480,7.747637,8.810662,-0.031842,0.001066,-0.076342
18.540,450420,2.011129,8.063671,8.623915,0.034507,-0.131100,0.020784
18.560,450440,1.680730,8.159439,8.882488,0.122440,-0.255937,0.085401
18.580,450460,1.292869,8.078036,9.294291,0.183326,-0.314292,0.027579
18.600,450480,0.656011,7.915231,10.160992,0.156147,-0.264198,-0.070346
18.620,450500,0.746991,7.651869,10.601525,0.030510,-0.104853,-0.154415
18.640,450520,0.833182,6.914454,10.601525,-0.129368,0.046498,-0.115112
18.660,450540,0.943315,6.148310,9.763555,-0.186524,0.103521,-0.016920
18.680,450560,1.584962,6.023811,8.331821,-0.015455,0.036372,0.022250
18.700,450580,2.485181,6.521805,7.503428,0.218766,-0.085934,0.017986
18.720,450600,2.178724,6.100426,7.517793,0.323885,-0.222629,-0.025047
18.740,450620,0.857124,5.669470,8.446744,0.284982,-0.244879,-0.085534
18.760,450640,0.603339,6.200983,9.188946,0.138294,-0.144156,-0.234887
18.780,450660,0.699107,6.430826,9.136273,0.003198,-0.025714,-0.285648
18.800,450680,0.852336,6.488286,8.331821,-0.067015,0.038371,-0.244879
18.820,450700,1.154005,6.574478,7.814674,-0.079273,0.081937,-0.230890
18.840,450720,1.680730,6.555324,7.311892,0.003464,0.035306,-0.213703
18.860,450740,1.968034,6.359000,7.072472,0.068881,-0.062485,-0.142025
18.880,450760,1.699883,5.951985,6.861782,0.072478,-0.096593,-0.048896
18.900,450780,1.407791,5.746084,6.607996,0.076608,-0.098724,0.049429
18.920,450800,0.995988,5.535394,6.727707,0.071545,-0.046098,0.077940
18.940,450820,0.785298,5.468357,6.809110,0.033708,0.027712,0.093795
18.960,450840,0.641646,5.880159,7.187394,0.012257,0.102855,0.045965
18.980,450860,0.866701,5.961562,7.244854,0.027712,0.146288,-0.009859
19.000,450880,0.823605,5.415684,7.244854,0.049162,0.150418,-0.000266
19.020,450900,0.656011,5.195418,7.350199,0.046498,0.178263,0.052227
19.040,450920,0.641646,5.554548,7.546524,0.028911,0.243147,0.098724
19.060,450940,0.924162,6.071695,7.599196,0.036505,0.303101,0.184259
19.080,450960,0.837971,6.454768,8.020576,0.035573,0.373181,0.234087
19.100,450980,1.024718,7.043741,8.485051,0.041968,0.442061,0.258868
19.120,451000,0.981623,7.675811,8.499416,0.044766,0.531060,0.341205
19.140,451020,0.780510,8.322245,8.532935,0.083136,0.646704,0.493622
19.160,451040,1.388637,9.198523,8.647857,0.164940,0.794191,0.600606
19.180,451060,0.162806,8.872911,8.748413,0.176398,0.969391,0.741832
19.200,451080,-0.646434,9.385271,8.834604,0.117510,1.200813,0.712121
19.220,451100,-1.120486,9.543288,8.221688,0.141092,1.443161,0.607534
19.240,451120,-1.407791,8.839393,6.971915,0.272991,1.620758,0.529061
19.260,451140,-1.125275,8.528147,5.865794,0.476168,1.833928,0.668155
19.280,451160,-1.412579,8.710106,5.635951,0.694135,2.047498,1.119409
19.300,451180,-1.661576,8.628703,5.645528,0.777138,2.318224,1.472205
19.320,451200,-1.877054,8.250419,6.081272,0.817507,2.490758,1.712687
19.340,451220,-2.284068,7.637504,7.019799,0.777804,2.655032,1.816475
19.360,451240,-1.833959,7.910442,7.647080,0.651234,2.769345,1.756654
19.380,451260,-1.508347,7.570466,7.929596,0.576625,2.826634,1.553077
19.400,451280,-0.684742,7.556100,7.891289,0.487360,2.751358,1.303401
19.420,451300,0.598550,7.575254,7.747637,0.420611,2.508744,1.167905
19.440,451320,1.024718,6.904878,7.594408,0.342005,2.143424,1.079839
19.460,451340,1.197101,6.282385,7.398083,0.205443,1.780369,0.968058
19.480,451360,0.814029,5.865794,7.043741,0.040636,1.480732,0.820038
19.500,451380,0.450110,5.865794,6.732495,-0.136162,1.283417,0.643240
19.520,451400,-0.043096,5.865794,6.311116,-0.299237,1.130734,0.402225
19.540,451420,0.292093,6.402095,5.841852,-0.458449,0.978850,0.134564
19.560,451440,0.699107,6.670246,5.209783,-0.516005,0.807914,0.033041
19.580,451460,0.387861,6.847417,4.845864,-0.515338,0.599008,0.042900
19.600,451480,-0.521936,6.914454,4.946421,-0.435799,0.432602,-0.021583
19.620,451500,-0.158017,7.359776,5.137957,-0.372115,0.347867,-0.100057
19.640,451520,0.464475,8.197746,4.788404,-0.294175,0.211704,-0.103387
19.660,451540,-0.474052,8.221688,5.219360,-0.213836,0.021850,-0.053426
19.680,451560,-0.421380,8.633492,6.062119,-0.071545,-0.124971,-0.040236
19.700,451580,0.521936,9.093178,6.421249,-0.069813,-0.113779,0.016654
19.720,451600,1.149217,9.974244,7.699753,-0.109116,-0.152816,0.059421
19.740,451620,0.541090,9.844957,7.982268,-0.049429,-0.326283,0.012790
19.760,451640,-0.095768,9.730036,7.450756,0.019052,-0.410219,-0.088066
19.780,451660,-1.431733,9.054871,8.968679,-0.085801,-0.319888,-0.214502
19.800,451680,-1.833959,7.886500,8.925584,-0.109250,-0.244746,-0.365187
19.820,451700,-0.943315,7.393295,7.627927,-0.089931,-0.310828,-0.442328
19.840,451720,-0.584185,6.947973,8.039729,-0.162675,-0.331080,-0.407554
19.860,451740,0.028730,7.201759,7.307104,-0.185858,-0.471772,-0.320155
19.880,451760,-0.454898,7.101202,7.134721,-0.181594,-0.600740,-0.365986
19.900,451780,-1.154005,6.488286,7.953538,-0.203844,-0.646571,-0.526796
19.920,451800,-1.019930,6.756437,8.101978,-0.334410,-0.662426,-0.702395
19.940,451820,-1.115698,6.277597,8.556877,-0.465110,-0.754222,-0.912234
19.960,451840,0.196325,5.980716,8.355764,-0.591946,-0.863472,-1.163242
19.980,451860,0.981623,6.335058,8.523358,-0.623256,-1.083170,-1.238384
20.000,451880,-0.430956,5.937620,7.623138,-0.433268,-1.673251,-1.167772
20.020,451900,-0.076614,5.995081,7.671022,-0.341338,-1.809280,-1.223063
20.040,451920,-0.105345,5.468357,8.221688,-0.365054,-1.960764,-1.259568
20.060,451940,-1.058237,5.118803,8.111555,-0.429404,-1.990608,-1.300204
20.080,451960,-1.053449,5.257667,7.632715,-0.538920,-1.852580,-1.274623
20.100,451980,-1.063026,5.315128,7.163452,-0.596343,-1.744397,-1.304334
20.120,452000,-1.192312,5.425261,6.823475,-0.577557,-1.658463,-1.369217
20.140,452020,-1.637634,5.492299,6.636727,-0.480432,-1.617161,-1.341772
20.160,452040,-2.059013,5.161899,6.675035,-0.377444,-1.487660,-1.277821
20.180,452060,-2.111686,5.468357,7.335834,-0.338940,-1.326184,-1.240516
20.200,452080,-1.762132,6.272809,7.862558,-0.381708,-1.116345,-1.184692
20.220,452100,-1.321599,7.249643,7.618350,-0.361723,-0.956867,-1.052926
20.240,452120,-0.756568,7.651869,7.460332,-0.234753,-0.902242,-0.848017
20.260,452140,-0.636858,7.996634,8.350976,-0.139493,-0.856677,-0.662959
20.280,452160,0.009577,8.753201,8.839393,-0.139360,-0.737835,-0.494021
20.300,452180,-1.154005,8.805874,9.495404,-0.171202,-0.637511,-0.344136
20.320,452200,-1.996764,8.781932,10.026917,-0.261533,-0.440196,-0.398228
20.340,452220,-2.475605,8.197746,9.730036,-0.357326,-0.232489,-0.525331
20.360,452240,-1.905785,8.049306,8.762778,-0.350398,-0.194118,-0.573827
20.380,452260,-1.134852,7.920019,7.551312,-0.278187,-0.173734,-0.523599
20.400,452280,-0.842759,7.603985,6.837840,-0.126170,-0.257936,-0.426873
20.420,452300,-1.474828,7.067683,7.125144,-0.079139,-0.255271,-0.342804
20.440,452320,-2.025495,6.603208,7.876924,-0.164807,-0.124704,-0.264997
20.460,452340,-1.747767,6.789956,8.236053,-0.287380,0.047564,-0.222763
20.480,452360,-1.316811,6.397307,7.824251,-0.332279,0.132832,-0.158678
20.500,452380,-0.972046,6.253655,7.302315,-0.332412,0.131366,-0.114979
20.520,452400,-0.493206,6.277597,7.019799,-0.292576,0.090997,-0.081937
20.540,452420,-0.296881,5.980716,6.785168,-0.249009,0.016521,-0.046098
20.560,452440,-0.296881,5.880159,6.962338,-0.202511,-0.088732,-0.019985
20.580,452460,-0.588974,5.688623,7.192182,-0.170936,-0.102455,-0.016787
20.600,452480,-0.684742,5.535394,7.398083,-0.190121,-0.095793,-0.020384
20.620,452500,-0.766145,5.698200,7.455544,-0.220764,-0.076475,-0.020518
20.640,452520,-0.718261,5.918467,7.527370,-0.228358,-0.072611,-0.001865
20.660,452540,-0.646434,5.995081,7.608773,-0.183193,-0.107651,0.026513
20.680,452560,-0.746991,5.434838,7.230489,-0.114579,-0.146954,0.094061
20.700,452580,-1.565808,4.912902,7.158663,-0.063418,-0.208907,0.140159
20.720,452600,-2.073379,5.353435,8.140285,-0.043034,-0.173334,0.027979
20.740,452620,-0.876278,6.660669,9.016563,-0.043167,-0.053026,-0.100989
20.760,452640,0.033519,7.594408,9.610326,-0.044233,-0.042900,-0.053159
20.780,452660,0.497994,8.130709,9.792285,0.028911,-0.116444,0.047963
20.800,452680,1.120486,8.662222,9.423578,0.162675,-0.209839,0.054225
20.820,452700,0.186748,8.068460,9.782708,0.263132,-0.323619,0.025980
20.840,452720,0.119710,7.661446,9.931149,0.292842,-0.370649,-0.128168
20.860,452740,-0.852336,6.392519,10.529699,0.118176,-0.268994,-0.209972
20.880,452760,-0.660800,5.913678,10.165780,-0.090997,-0.147087,-0.234753
20.900,452780,-0.593762,5.310339,9.548077,-0.196649,-0.054758,-0.185458
20.920,452800,0.143652,4.951209,8.317456,-0.124971,-0.067015,-0.117377
20.940,452820,0.603339,5.181053,7.728483,0.037305,-0.200513,-0.075675
20.960,452840,-0.258574,4.855441,8.293514,0.031576,-0.253806,-0.112847
20.980,452860,-0.555455,5.195418,8.935161,-0.012923,-0.232355,-0.223429
21.000,452880,-0.440533,5.391742,9.428367,-0.124571,-0.146288,-0.293508
21.020,452900,-0.229843,5.731719,9.442732,-0.212637,-0.070080,-0.314559
21.040,452920,-0.239420,5.827487,9.227253,-0.295640,-0.001998,-0.292842
21.060,452940,-0.095768,6.090849,8.887277,-0.300570,0.031709,-0.302302
21.080,452960,0.354342,6.153099,8.465898,-0.249542,0.021450,-0.301103
21.100,452980,0.569820,5.975927,8.135497,-0.157479,-0.034507,-0.235420
21.120,453000,0.708684,5.722142,7.881712,-0.085534,-0.088199,-0.115511
21.140,453020,0.507571,5.343858,7.790732,-0.037172,-0.120974,0.018386
21.160,453040,0.095768,5.128380,7.714118,0.000133,-0.146688,0.090331
21.180,453060,-0.229843,4.965574,7.536947,-0.037438,-0.122306,0.065816
21.200,453080,-0.244209,5.037400,7.886500,-0.044499,-0.079939,-0.011858
21.220,453100,-0.148441,4.759673,7.934384,-0.036106,-0.059821,-0.025847
21.240,453120,-0.368707,4.314352,7.570466,-0.034240,-0.082870,0.015721
21.260,453140,-0.545878,4.711789,8.346188,-0.059554,-0.050628,0.001599
21.280,453160,-0.229843,5.061342,8.810662,-0.122839,0.037838,-0.009992
21.300,453180,-0.019154,5.291186,8.705317,-0.188522,0.081138,0.073544
21.320,453200,0.201113,6.062119,8.667010,-0.163608,0.092995,0.156280
21.340,453220,-0.033519,6.349423,9.193734,-0.117776,0.107917,0.233688
21.360,453240,0.694318,7.378930,9.490616,-0.033175,0.075276,0.262865
21.380,453260,-0.167594,7.096414,9.318233,0.017587,0.021051,0.342671
21.400,453280,-0.363919,8.063671,9.662998,0.049695,0.021184,0.262998
21.420,453300,-1.034295,7.752425,9.504981,-0.013856,0.148953,0.155747
21.440,453320,-1.460463,7.292738,8.829816,-0.041435,0.159611,0.093795
21.460,453340,-1.312023,7.493851,8.159439,0.001865,0.133498,0.007328
21.480,453360,-0.900220,7.503428,7.872135,0.041968,0.185191,-0.052493
21.500,453380,-1.422156,7.139510,8.446744,0.046231,0.167472,-0.054358
21.520,453400,-1.857901,6.833052,9.318233,-0.077807,0.242747,-0.079939
21.540,453420,-1.422156,6.766014,9.414001,-0.132032,0.310429,-0.055158
21.560,453440,-0.857124,6.449979,8.619126,-0.222363,0.353862,0.012524
21.580,453460,-0.742203,6.253655,8.413225,-0.256870,0.312827,0.078340
21.600,453480,-0.387861,6.196194,7.613562,-0.178530,0.251274,0.103920
21.620,453500,-0.569820,5.612009,7.072472,-0.104720,0.203844,0.089798
21.640,453520,-0.656011,5.348647,7.240066,-0.095260,0.195983,0.059554
21.660,453540,-0.009577,5.659893,6.660669,-0.081538,0.167338,0.027845
21.680,453560,0.258574,5.631162,6.713342,-0.086201,0.139626,0.017453
21.700,453580,-0.081403,5.702989,7.091625,-0.116044,0.084335,0.050095
21.720,453600,-0.474052,6.047753,7.450756,-0.160410,0.079006,0.111381
21.740,453620,-1.316811,5.650316,8.192958,-0.183060,0.108317,0.169337
21.760,453640,-1.527501,5.228937,8.307879,-0.197715,0.170003,0.191986
21.780,453660,-1.345541,5.094861,8.303091,-0.225161,0.183193,0.181194
21.800,453680,-1.312023,5.410896,8.245630,-0.213570,0.112314,0.161210
21.820,453700,-1.541866,5.784391,8.173804,-0.161476,0.056757,0.069813
21.840,453720,-1.321599,6.368577,8.264784,-0.144289,0.052493,-0.069147
21.860,453740,-0.761356,7.058106,8.719683,-0.115378,0.031443,-0.135629
21.880,453760,0.067038,7.642292,8.863335,-0.063951,-0.062219,-0.061420
21.900,453780,0.574608,8.662222,9.136273,0.005729,-0.154548,0.004796
21.920,453800,-0.052672,7.369353,8.844181,0.110582,-0.255404,0.126570
21.940,453820,-0.110133,7.307104,9.294291,0.117776,-0.289378,0.142158
21.960,453840,-0.684742,6.392519,10.165780,0.032375,-0.234620,0.149219
21.980,453860,-0.670376,5.477933,10.261548,-0.127236,-0.103654,0.140959
22.000,453880,-0.526724,5.310339,9.773131,-0.260467,-0.009459,0.135496
22.020,453900,-0.105345,5.746084,8.690952,-0.205709,0.041968,0.066216
22.040,453920,0.718261,6.100426,8.451532,-0.013323,-0.012124,-0.035573
22.060,453940,0.014365,5.334281,8.786720,0.050095,-0.126436,-0.072744
22.080,453960,-1.120486,5.023035,9.773131,-0.040502,-0.140559,-0.140026
22.100,453980,-1.115698,5.693412,10.218452,-0.209972,-0.020118,-0.254338
22.120,454000,-0.775721,5.908890,9.911995,-0.336409,0.116311,-0.290044
22.140,454020,-0.004788,6.129156,9.351752,-0.377844,0.129900,-0.277920
22.160,454040,0.723049,6.028600,8.647857,-0.311228,0.054092,-0.245012
22.180,454060,0.670376,5.425261,8.350976,-0.207841,-0.096593,-0.179995
22.200,454080,0.560243,4.946421,8.240842,-0.153882,-0.212371,-0.115378
22.220,454100,0.258574,4.453215,7.924808,-0.144556,-0.298172,-0.063018
22.240,454120,0.081403,4.209007,7.963115,-0.137495,-0.307098,-0.037038
22.260,454140,0.004788,3.964798,8.044518,-0.149086,-0.301103,-0.067282
22.280,454160,0.100556,4.074931,8.197746,-0.162009,-0.311095,-0.134164
22.300,454180,0.296881,4.453215,8.164227,-0.154681,-0.339473,-0.199447
22.320,454200,0.277727,4.568137,8.125920,-0.116577,-0.362123,-0.231556
22.340,454220,0.119710,4.515464,8.049306,-0.067415,-0.369051,-0.227692
22.360,454240,0.167594,4.625597,8.236053,-0.005596,-0.363721,-0.213703
22.380,454260,0.373495,5.051765,8.508993,0.004397,-0.310695,-0.180928
22.400,454280,0.440533,5.516241,8.944737,0.015188,-0.275655,-0.124172
22.420,454300,0.541090,6.110003,9.026140,0.018919,-0.262732,-0.090331
22.440,454320,0.818817,6.574478,9.169792,0.081138,-0.263531,-0.063418
22.460,454340,0.962469,6.818686,9.313444,0.111914,-0.266729,-0.010392
22.480,454360,0.900220,7.019799,9.399636,0.136029,-0.266196,0.050495
22.500,454380,1.417367,7.991845,9.859323,0.181861,-0.268594,0.067015
22.520,454400,1.594538,7.833828,10.007763,0.213836,-0.245545,0.147487
22.540,454420,1.201889,7.943961,10.046070,0.184525,-0.280585,0.243680
22.560,454440,0.679953,7.637504,9.806650,0.181594,-0.273257,0.289778
22.580,454460,-0.421380,6.742072,9.155427,0.067015,-0.228358,0.249542
22.600,454480,-1.508347,6.210559,8.279149,-0.011058,-0.203711,0.120574
22.620,454500,-1.651999,6.215348,7.551312,0.031176,-0.184925,-0.115112
22.640,454520,-1.240196,6.411672,7.345411,0.147620,-0.184525,-0.309629
22.660,454540,-1.029507,6.363788,7.829040,0.146954,-0.168671,-0.374113
22.680,454560,-0.651223,6.837840,8.633492,0.011458,-0.125504,-0.360524
22.700,454580,-0.670376,6.742072,8.887277,-0.079406,-0.104187,-0.267528
22.720,454600,-0.608127,6.550536,8.772355,-0.175466,-0.074210,-0.175599
22.740,454620,-0.450110,6.507440,8.470686,-0.276588,-0.033441,-0.107118
22.760,454640,0.129287,6.833052,8.130709,-0.295240,-0.017853,-0.055158
22.780,454660,0.411803,6.694188,7.848193,-0.209173,-0.034240,-0.000266
22.800,454680,0.531513,6.291962,7.556100,-0.083802,-0.036106,0.010525
22.820,454700,0.703895,6.119579,7.259220,0.014655,-0.072744,0.010525
22.840,454720,0.426168,5.765238,7.187394,0.065283,-0.097525,0.026247
22.860,454740,-0.052672,5.612009,7.321469,0.038904,-0.086067,0.028245
22.880,454760,-0.229843,5.583278,7.412448,0.011325,-0.061553,0.017320
22.900,454780,-0.234632,5.487510,7.398083,0.000533,-0.033708,-0.012790
22.920,454800,-0.071826,5.401319,7.244854,-0.005329,-0.041835,0.000666
22.940,454820,-0.134075,5.238513,7.015011,-0.010392,-0.062619,0.043167
22.960,454840,-0.277727,5.521029,7.192182,-0.021184,-0.083403,0.067948
22.980,454860,-0.277727,5.808333,7.417237,0.010392,-0.131100,0.055957
23.000,454880,0.071826,6.038177,7.709330,0.037038,-0.154948,0.008527
23.020,454900,0.253785,6.277597,7.862558,0.016654,-0.179729,-0.026913
23.040,454920,0.545878,6.756437,8.020576,0.014522,-0.210239,-0.076608
23.060,454940,0.794875,7.220912,8.461109,0.027845,-0.225028,-0.116311
23.080,454960,1.249773,8.485051,9.332599,0.003597,-0.231689,-0.160810
23.100,454980,1.110910,8.240842,9.605537,0.015988,-0.184925,-0.199447
23.120,455000,1.187524,8.762778,10.113108,-0.034773,-0.162276,-0.284315
23.140,455020,1.086968,7.934384,10.429143,-0.099124,-0.026646,-0.328948
23.160,455040,1.177947,6.943185,10.295067,-0.219032,0.079672,-0.228358
23.180,455060,1.225831,5.961562,9.481039,-0.296306,0.098458,-0.054225
23.200,455080,1.551443,5.712565,8.791509,-0.263798,0.044366,0.094461
23.220,455100,1.441309,5.602432,8.599973,-0.216900,-0.019052,0.145489
23.240,455120,0.531513,5.363012,9.050082,-0.229291,-0.037838,0.058755
23.260,455140,0.239420,5.635951,9.538500,-0.241548,-0.022783,-0.109649
23.280,455160,0.622492,6.138733,9.548077,-0.273257,0.023982,-0.209839
23.300,455180,0.694318,5.712565,8.997410,-0.276721,0.095926,-0.184792
23.320,455200,0.579397,5.401319,8.576031,-0.269127,0.139893,-0.108317
23.340,455220,0.785298,5.396531,8.073248,-0.209706,0.150951,-0.072744
23.360,455240,0.636858,5.181053,7.862558,-0.130034,0.122972,-0.061553
23.380,455260,0.612916,5.099649,7.886500,-0.062219,0.084069,-0.057556
23.400,455280,0.924162,5.276821,7.876924,-0.032642,0.078207,-0.038637
23.420,455300,1.072602,5.343858,7.776367,-0.004130,0.091530,0.010126
23.440,455320,1.024718,5.343858,7.718906,-0.006129,0.096060,0.034374
23.460,455340,1.063026,5.295974,7.623138,0.008660,0.098191,0.019985
23.480,455360,1.187524,5.334281,7.881712,-0.007861,0.099790,0.016521
23.500,455380,1.072602,5.329493,7.948750,-0.022116,0.094594,0.057556
23.520,455400,0.684742,5.075707,7.738060,-0.010392,0.100590,0.099524
23.540,455420,0.464475,4.850653,7.589619,0.020118,0.100456,0.106052
23.560,455440,0.373495,4.769250,7.785944,0.043567,0.094594,0.088599
23.580,455460,0.584185,5.066131,8.231265,0.017720,0.125104,0.084868
23.600,455480,0.675165,5.425261,8.772355,-0.056357,0.160410,0.101922
23.620,455500,0.732626,6.248867,9.069236,-0.099923,0.184658,0.125637
23.640,455520,1.082179,7.067683,9.241618,-0.068614,0.181194,0.126836
23.660,455540,1.431733,8.269572,9.811439,-0.028245,0.176398,0.110049
23.680,455560,2.006341,8.370130,9.921572,0.028245,0.188389,0.143224
23.700,455580,0.713472,7.685388,9.859323,-0.033175,0.172534,0.263931
23.720,455600,-0.205901,7.618350,9.763555,-0.175199,0.227159,0.275522
23.740,455620,-1.144428,7.283162,9.332599,-0.206775,0.241149,0.208240
23.760,455640,-1.632846,6.986280,8.935161,-0.201979,0.278453,0.026113
23.780,455660,-1.168370,7.043741,8.604761,-0.108184,0.227825,-0.100190
23.800,455680,-0.090980,7.297527,7.934384,0.040769,0.101389,-0.106985
23.820,455700,-0.411803,6.636727,8.082825,0.096193,0.027179,0.007461
23.840,455720,-1.216254,5.995081,8.724471,-0.013057,0.071678,0.114579
23.860,455740,-0.976834,6.612785,9.002198,-0.230090,0.164008,0.113913
23.880,455760,-0.723049,7.058106,8.882488,-0.338141,0.237818,0.039703
23.900,455780,-0.474052,6.890512,8.667010,-0.368917,0.295640,-0.041835
23.920,455800,0.076614,7.019799,8.523358,-0.332545,0.273657,-0.049296
23.940,455820,0.828394,7.125144,8.001422,-0.265663,0.210106,0.051294
23.960,455840,1.163582,7.058106,7.560889,-0.127636,0.094861,0.200247
23.980,455860,0.814029,6.354211,7.120356,-0.016521,0.067149,0.301236
24.000,455880,0.344765,5.707777,7.010222,0.037571,0.030377,0.325351
24.020,455900,0.043096,5.386954,7.235278,0.062752,0.027979,0.285648
24.040,455920,-0.014365,5.233725,7.393295,0.035839,0.061819,0.230224
24.060,455940,0.124498,5.329493,7.383718,-0.004796,0.067015,0.203977
24.080,455960,-0.100556,5.147533,7.163452,-0.038371,0.068081,0.190521
24.100,455980,-0.196325,5.066131,7.187394,-0.062752,0.064884,0.179063
24.120,456000,-0.225055,4.951209,7.129933,-0.058222,0.053159,0.185991
24.140,456020,-0.459687,5.300763,7.335834,-0.085401,0.005462,0.181461
24.160,456040,-0.344765,5.990293,7.536947,-0.036106,-0.023582,0.096593
24.180,456060,0.052672,6.406884,7.943961,0.002531,-0.029711,0.002931
24.200,456080,0.632069,6.804321,8.226477,0.000266,-0.097792,-0.035040
24.220,456100,1.110910,7.249643,8.283937,0.030110,-0.176665,-0.014922
24.240,456120,1.369483,7.771579,8.398860,0.053825,-0.255138,0.021717
24.260,456140,1.618480,8.408437,8.724471,0.079539,-0.337342,-0.007594
24.280,456160,0.593762,7.115568,8.863335,0.061286,-0.343070,-0.013190
24.300,456180,-0.138864,7.455544,10.070012,0.001998,-0.392233,-0.091796
24.320,456200,0.857124,8.140285,10.654198,-0.030776,-0.274989,-0.250475
24.340,456220,1.752556,7.412448,10.165780,-0.083802,-0.177730,-0.172934
24.360,456240,1.618480,6.133945,9.730036,-0.135629,-0.179196,0.091397
24.380,456260,1.149217,5.463568,8.935161,-0.121907,-0.217966,0.288979
24.400,456280,0.694318,5.554548,8.839393,-0.099124,-0.232755,0.330147
24.420,456300,0.411803,5.851429,9.519346,-0.102322,-0.197982,0.206109
24.440,456320,0.694318,6.291962,9.639056,-0.138427,-0.152283,0.037172
24.460,456340,0.699107,6.363788,9.509769,-0.165606,-0.111381,-0.094594
24.480,456360,0.770933,6.296751,8.853758,-0.196116,-0.050095,-0.159078
24.500,456380,0.809240,6.287174,8.283937,-0.184792,-0.037438,-0.212770
24.520,456400,1.259350,6.363788,7.690176,-0.105652,-0.037838,-0.278453
24.540,456420,1.503559,6.114791,7.311892,-0.038637,-0.059954,-0.281651
24.560,456440,1.398214,5.635951,7.177817,0.005596,-0.094594,-0.204776
24.580,456460,1.082179,5.334281,7.153875,0.006795,-0.103920,-0.098591
24.600,456480,0.723049,5.281609,7.220912,0.012923,-0.100456,-0.074077
24.620,456500,0.646434,5.348647,7.383718,0.004263,-0.071545,-0.152150
24.640,456520,0.550666,5.377377,7.675811,-0.005596,-0.074876,-0.234887
24.660,456540,0.478840,5.324705,7.814674,-0.028511,-0.074476,-0.268861
24.680,456560,0.483629,5.444415,7.872135,-0.062352,-0.072078,-0.273391
24.700,456580,0.679953,5.626374,7.704541,-0.058888,-0.056357,-0.248609
24.720,456600,0.924162,5.506664,7.781156,-0.046098,-0.049695,-0.180795
24.740,456620,1.115698,5.679047,7.891289,-0.039570,-0.064351,-0.094461
24.760,456640,1.474828,6.033388,8.034941,-0.038371,-0.059021,-0.006662
24.780,456660,1.527501,5.918467,8.111555,-0.044233,-0.013723,0.082603
24.800,456680,1.393425,5.841852,8.365341,-0.048763,-0.015855,0.181594
24.820,456700,1.244985,6.042965,8.671799,-0.059421,0.024515,0.223562
24.840,456720,1.264138,6.569689,8.949526,-0.081138,0.086600,0.204776
24.860,456740,1.403002,7.144298,9.093178,-0.041835,0.095527,0.153616
24.880,456760,1.896208,7.953538,9.078813,0.048896,0.066882,0.064884
24.900,456780,2.001553,7.527370,8.671799,0.146421,0.057956,0.063951
24.920,456800,1.345541,8.010999,9.117120,0.106452,-0.020118,0.081404
24.940,456820,1.369483,8.537724,9.471462,0.094727,0.027446,0.002398
24.960,456840,0.541090,8.073248,9.567230,-0.022916,0.085401,-0.027446
24.980,456860,-0.158017,7.814674,9.308656,-0.132032,0.109383,-0.074609
25.000,456880,-0.363919,7.450756,8.240842,-0.118709,0.105119,-0.131100
25.020,456900,0.028730,7.220912,7.096414,0.028378,0.015322,-0.133098
25.040,456920,0.450110,7.005434,7.168240,0.142424,-0.021450,-0.100323
25.060,456940,0.292093,6.330269,7.718906,0.081005,0.009459,0.008260
25.080,456960,0.248997,6.445191,8.255207,-0.091397,0.077008,0.109116
25.100,456980,0.119710,6.387730,8.279149,-0.231822,0.192652,0.124172
25.120,457000,-0.148441,6.387730,8.216900,-0.342538,0.267928,0.092063
25.140,457020,-0.129287,6.440403,8.034941,-0.358259,0.277121,0.030910
25.160,457040,0.320823,6.550536,7.580042,-0.333744,0.302835,-0.050228
25.180,457060,0.833182,6.607996,7.158663,-0.260201,0.286047,-0.031842
25.200,457080,1.010353,6.454768,7.010222,-0.163208,0.239683,0.024515
25.220,457100,0.770933,6.033388,6.799533,-0.096726,0.178263,0.081937
25.240,457120,0.330400,5.736507,6.957550,-0.088998,0.149352,0.091263
25.260,457140,0.057461,5.497087,7.201759,-0.077141,0.121907,0.068214
25.280,457160,0.129287,5.612009,7.603985,-0.096593,0.137228,0.040902
25.300,457180,0.349553,5.669470,7.551312,-0.144289,0.172668,0.047697
25.320,457200,0.407014,5.659893,7.398083,-0.198115,0.154015,0.086467
25.340,457220,-0.043096,5.511452,7.206547,-0.212504,0.084469,0.132565
25.360,457240,-0.459687,5.300763,7.388506,-0.178263,0.045965,0.150818
25.380,457260,-0.526724,5.717354,7.948750,-0.180928,0.028112,0.107917
25.400,457280,-0.124498,6.205771,8.475474,-0.196383,0.057822,0.034773
25.420,457300,0.430956,6.694188,8.700529,-0.200779,0.053159,0.013456
25.440,457320,1.197101,7.546524,8.777143,-0.184525,0.002665,0.044499
25.460,457340,1.508347,8.073248,8.729259,-0.088332,-0.094328,0.084735
25.480,457360,1.757344,8.705317,9.126697,0.031975,-0.205976,0.022383
25.500,457380,1.249773,6.991069,9.107543,0.119242,-0.237285,0.002665
25.520,457400,0.311246,6.785168,10.419566,0.001066,-0.306965,0.029444
25.540,457420,0.852336,7.182605,11.042058,-0.109116,-0.144822,-0.027579
25.560,457440,1.048660,6.698977,10.534488,-0.254871,0.009193,-0.002931
25.580,457460,1.321599,6.277597,9.351752,-0.228358,-0.029711,0.036772
25.600,457480,1.417367,6.157887,8.173804,-0.017986,-0.137628,0.023848
25.620,457500,1.498770,6.057330,7.943961,0.159611,-0.215968,-0.027579
25.640,457520,0.885855,5.851429,8.547300,0.162142,-0.224894,-0.092596
25.660,457540,0.651223,6.181829,9.193734,0.082204,-0.178397,-0.167472
25.680,457560,0.641646,6.339846,9.591172,-0.023848,-0.048096,-0.225294
25.700,457580,0.751779,6.177041,9.351752,-0.129234,0.086201,-0.200646
25.720,457600,0.588974,6.143522,8.753201,-0.219698,0.153882,-0.166806
25.740,457620,0.679953,6.277597,8.327033,-0.192652,0.152150,-0.215968
25.760,457640,1.034295,6.325481,8.049306,-0.091663,0.107518,-0.285781
25.780,457660,1.259350,6.220136,7.632715,-0.009859,0.024248,-0.296440
25.800,457680,1.225831,5.832275,7.407660,0.055557,-0.060887,-0.249142
25.820,457700,1.216254,5.549759,7.292738,0.074743,-0.113247,-0.185191
25.840,457720,0.895431,5.224148,7.287950,0.033308,-0.120441,-0.111515
25.860,457740,0.651223,5.209783,7.522582,-0.030243,-0.095394,-0.064750
25.880,457760,0.536301,5.382165,7.642292,-0.088332,-0.044366,-0.059821
25.900,457780,0.541090,5.372589,7.575254,-0.103920,-0.000400,-0.081404
25.920,457800,0.598550,5.147533,7.316680,-0.076475,0.003864,-0.078873
25.940,457820,0.703895,5.027823,7.244854,-0.025980,-0.017187,-0.045299
25.960,457840,1.010353,5.367800,7.551312,0.003064,-0.001332,-0.010126
25.980,457860,1.407791,5.770026,7.977480,-0.028778,0.028112,0.046764
26.000,457880,1.292869,6.138733,8.494628,-0.102855,0.057689,0.109516
26.020,457900,1.335965,6.732495,8.839393,-0.148420,0.077008,0.118443
26.040,457920,1.446098,7.139510,8.796297,-0.118309,0.063951,0.106185
26.060,457940,1.211466,7.244854,8.676587,-0.040502,0.027979,0.105652
26.080,457960,1.589750,8.010999,9.112331,0.024914,-0.001332,0.088732
26.100,457980,1.450886,7.939173,9.155427,0.059688,-0.007994,0.148286
26.120,458000,1.000776,8.413225,9.667787,0.027179,-0.031443,0.158545
26.140,458020,0.215478,8.082825,9.500193,-0.045032,0.050761,0.098858
26.160,458040,-0.536301,7.450756,8.916007,-0.091930,0.067948,0.025047
26.180,458060,-0.392649,7.283162,8.236053,-0.036372,0.063818,-0.056623
26.200,458080,0.263362,7.436390,7.762002,0.048496,0.013590,-0.089531
26.220,458100,0.363919,7.038953,7.738060,0.094328,-0.036505,-0.042634
26.240,458120,-0.043096,7.000646,8.240842,0.048763,-0.038104,-0.013723
26.260,458140,-0.263362,7.091625,8.719683,-0.017054,0.079939,-0.050761
26.280,458160,-0.023942,7.082048,8.829816,-0.130034,0.227159,-0.069014
26.300,458180,0.028730,6.679823,8.427590,-0.245945,0.286714,-0.028378
26.320,458200,-0.071826,6.900089,7.982268,-0.265796,0.294308,-0.032375
26.340,458220,0.076614,6.904878,7.666234,-0.185991,0.313760,-0.056357
26.360,458240,0.181959,6.603208,7.402872,-0.101655,0.270593,-0.049962
26.380,458260,0.129287,6.296751,7.173028,-0.010126,0.204643,-0.025847
26.400,458280,0.086191,6.047753,7.125144,0.047564,0.169870,0.003597
26.420,458300,0.143652,5.880159,7.206547,0.065283,0.154681,0.032642
26.440,458320,-0.047884,5.731719,7.249643,0.035173,0.154681,0.066349
26.460,458340,-0.158017,5.631162,7.244854,-0.002665,0.177064,0.097925
26.480,458360,-0.143652,5.746084,7.153875,-0.017187,0.174533,0.126836
26.500,458380,-0.023942,6.028600,7.029376,-0.026247,0.164940,0.116844
26.520,458400,0.095768,5.990293,6.895301,0.017320,0.124172,0.109116
26.540,458420,0.134075,5.908890,6.775591,0.047830,0.049962,0.114712
26.560,458440,-0.090980,5.846641,6.727707,0.092063,-0.044632,0.127502
26.580,458460,-0.292093,6.416461,7.015011,0.090730,-0.090064,0.101256
26.600,458480,-0.153229,7.211336,7.364564,0.088865,-0.067415,0.033441
26.620,458500,0.272939,7.718906,7.675811,0.105786,-0.023982,0.005862
26.640,458520,0.833182,8.183381,7.656657,0.141225,-0.031975,0.055957
26.660,458540,0.967257,8.408437,7.809886,0.160943,-0.029577,0.135230
26.680,458560,1.139640,9.289502,8.164227,0.157746,-0.031709,0.108184
26.700,458580,0.962469,8.552089,8.312668,0.182793,0.001466,0.078473
26.720,458600,0.617704,8.877700,9.184157,0.170003,-0.059288,0.040769
26.740,458620,0.823605,9.059659,9.648633,0.090997,0.037571,-0.065283
26.760,458640,0.842759,8.135497,9.380483,-0.015188,0.099124,-0.076874
26.780,458660,0.627281,6.732495,9.083601,-0.069413,0.089665,0.017320
26.800,458680,0.450110,5.655105,8.676587,-0.120708,0.077274,0.167738
26.820,458700,0.694318,5.750873,8.010999,-0.092329,0.011191,0.276188
26.840,458720,0.928950,5.837064,7.661446,0.006395,-0.029044,0.254605
26.860,458740,0.775721,5.612009,7.752425,0.032642,-0.072744,0.177730
26.880,458760,0.737414,5.803545,7.934384,0.040369,-0.132032,0.086201
26.900,458780,0.708684,6.181829,8.121132,-0.001066,-0.118443,-0.007727
26.920,458800,0.790087,6.483498,8.145074,-0.066616,-0.054492,-0.092862
26.940,458820,0.833182,6.478710,8.030152,-0.145888,0.001199,-0.127103
26.960,458840,0.952892,6.588843,7.953538,-0.179462,0.007328,-0.138028
26.980,458860,1.086968,6.339846,7.718906,-0.184792,0.008394,-0.137361
27.000,458880,1.125275,6.181829,7.374141,-0.161609,-0.031176,-0.103787
27.020,458900,1.264138,6.392519,7.105990,-0.120308,-0.068614,-0.071412
27.040,458920,1.359907,6.502652,7.072472,-0.081538,-0.079139,-0.043833
27.060,458940,1.187524,6.402095,7.115568,-0.058355,-0.080072,-0.024648
27.080,458960,0.948104,6.354211,7.244854,-0.039436,-0.069547,-0.028112
27.100,458980,0.986411,6.272809,7.374141,-0.044100,-0.026247,-0.041568
27.120,459000,0.972046,6.114791,7.378930,-0.074743,-0.000533,-0.033974
27.140,459020,0.905008,6.167464,7.254431,-0.092862,0.017986,-0.035040
27.160,459040,0.775721,6.081272,7.230489,-0.080472,0.038104,-0.044499
27.180,459060,0.718261,6.143522,7.402872,-0.030243,-0.003198,-0.035573
27.200,459080,0.957681,6.344635,7.694964,0.019985,-0.007061,-0.025047
27.220,459100,1.307234,6.497863,7.829040,0.022916,0.015322,0.009326
27.240,459120,1.513135,6.698977,7.953538,-0.018519,0.022516,0.069813
27.260,459140,1.637634,7.259220,7.977480,-0.020518,0.006928,0.117643
27.280,459160,1.675941,7.436390,7.785944,0.029711,-0.001199,0.134430
27.300,459180,1.628057,7.642292,7.829040,0.057156,-0.021717,0.148420
27.320,459200,1.474828,8.327033,8.231265,0.073943,-0.067015,0.127769
27.340,459220,1.632846,8.949526,8.571242,0.088998,-0.044233,0.073011
27.360,459240,1.556231,9.227253,8.925584,0.083003,-0.062086,0.057156
27.380,459260,1.431733,9.548077,8.916007,0.055158,-0.026913,0.017453
27.400,459280,0.723049,8.920795,8.317456,-0.013456,0.053692,-0.006662
27.420,459300,-0.177171,7.685388,7.690176,-0.061686,0.078740,0.007994
27.440,459320,-0.679953,7.010222,6.861782,-0.000933,-0.016787,0.009326
27.460,459340,-0.622492,6.947973,6.133945,0.179596,-0.122573,-0.011058
27.480,459360,-0.598550,6.655881,6.359000,0.241815,-0.091796,-0.032508
27.500,459380,-0.679953,6.713342,7.230489,0.117110,-0.012391,-0.009459
27.520,459400,-0.253785,7.393295,7.704541,-0.048629,0.093928,-0.021317
27.540,459420,-0.071826,7.685388,7.972692,-0.202245,0.253539,-0.026646
27.560,459440,-0.057461,7.364564,8.010999,-0.315492,0.374779,0.029444
27.580,459460,0.186748,7.019799,7.647080,-0.377178,0.426606,0.079672
27.600,459480,0.785298,6.924031,7.206547,-0.346534,0.445392,0.149086
27.620,459500,1.244985,6.861782,6.679823,-0.275256,0.385305,0.231023
27.640,459520,1.297657,6.761226,6.646304,-0.195983,0.296040,0.287380
27.660,459540,1.005565,6.483498,6.651093,-0.122573,0.234087,0.303368
27.680,459560,0.905008,6.402095,7.019799,-0.099524,0.192652,0.276988
27.700,459580,1.015141,6.349423,7.139510,-0.124038,0.174533,0.242348
27.720,459600,0.847547,6.449979,7.010222,-0.182260,0.134963,0.217034
27.740,459620,0.416591,6.502652,6.962338,-0.224628,0.036905,0.157080
27.760,459640,0.497994,6.488286,7.249643,-0.293508,-0.074343,0.121240
27.780,459660,0.751779,6.435614,7.374141,-0.332812,-0.092596,0.220231
27.800,459680,0.823605,6.517017,7.192182,-0.350798,-0.077940,0.411285
27.820,459700,0.804452,6.722919,6.933608,-0.320688,-0.074343,0.555974
27.840,459720,0.914585,7.072472,6.718130,-0.252606,-0.112181,0.567299
27.860,459740,1.067814,7.546524,6.847417,-0.173734,-0.191853,0.478833
27.880,459760,1.393425,7.953538,7.086837,-0.089531,-0.277920,0.359591
27.900,459780,1.723825,7.886500,7.072472,-0.033841,-0.321753,0.261266
27.920,459800,2.025495,7.704541,7.230489,0.004663,-0.387969,0.251940
27.940,459820,2.197877,7.843405,7.785944,-0.005462,-0.423276,0.241948
27.960,459840,2.413355,8.355764,8.188169,-0.057822,-0.397029,0.190521
27.980,459860,1.776498,7.814674,8.667010,-0.152417,-0.315891,0.155614
28.000,459880,1.742979,8.920795,9.907207,-0.229824,-0.307498,0.024914
28.020,459900,1.987187,8.834604,10.390836,-0.290044,-0.151484,-0.153749
28.040,459920,1.781286,7.996634,9.782708,-0.398761,-0.040636,-0.211038
28.060,459940,1.853112,7.153875,8.667010,-0.326150,-0.051427,-0.192519
28.080,459960,1.810017,6.588843,7.527370,-0.158145,-0.232888,-0.124172
28.100,459980,1.886631,6.210559,7.177817,0.025314,-0.427806,-0.087666
28.120,460000,1.369483,5.559336,7.685388,0.083669,-0.505613,-0.116977
28.140,460020,0.881066,5.396531,8.657434,0.045299,-0.488692,-0.195450
28.160,460040,1.278504,5.722142,9.361329,-0.010259,-0.351198,-0.280452
28.180,460060,2.097321,6.224925,9.064447,-0.073544,-0.179729,-0.265397
28.200,460080,2.394202,6.311116,8.207323,-0.126570,-0.069014,-0.159744
28.220,460100,2.312799,6.263232,7.666234,-0.142824,-0.039969,-0.104453
28.240,460120,2.106898,5.880159,7.216124,-0.105119,-0.017853,-0.106851
28.260,460140,1.972822,5.607220,6.995857,-0.040502,-0.044100,-0.126570
28.280,460160,2.035071,5.770026,7.015011,0.017720,-0.100323,-0.140825
28.300,460180,2.130840,6.004658,7.043741,0.030243,-0.106319,-0.149219
28.320,460200,2.049437,6.081272,7.015011,0.010259,-0.077940,-0.148286
28.340,460220,1.953669,6.071695,7.043741,-0.001998,-0.051427,-0.142691
28.360,460240,1.733402,5.875371,7.067683,-0.020384,-0.026646,-0.133631
28.380,460260,1.479617,5.631162,7.110779,-0.028245,-0.024648,-0.134963
28.400,460280,1.450886,5.588067,7.101202,-0.020651,-0.033175,-0.142424
28.420,460300,1.441309,5.717354,7.077260,-0.018786,-0.034773,-0.140026
28.440,460320,1.819593,6.062119,7.249643,0.015322,-0.027845,-0.140426
28.460,460340,2.207454,6.339846,7.144298,0.060487,-0.047164,-0.108983
28.480,460360,2.657564,6.598420,7.240066,0.100323,-0.047830,-0.050095
28.500,460380,2.686294,6.770802,7.359776,0.121240,-0.068481,0.039436
28.520,460400,2.633622,7.264008,7.570466,0.150418,-0.090064,0.065283
28.540,460420,2.992752,7.709330,7.728483,0.189322,-0.089665,0.045965
28.560,460440,3.337517,7.838616,7.618350,0.196649,-0.102855,0.062619
28.580,460460,3.160346,7.996634,7.465121,0.188922,-0.148020,0.109649
28.600,460480,2.911349,8.413225,7.603985,0.201979,-0.169737,0.122306
28.620,460500,3.045424,9.145850,8.202535,0.210239,-0.131233,0.105386
28.640,460520,2.743755,9.078813,8.710106,0.144956,-0.031709,0.134697
28.660,460540,2.442086,9.485827,9.208099,0.061420,0.017320,0.164940
28.680,460560,2.557007,9.658210,8.777143,0.016787,0.106985,0.161476
28.700,460580,1.948880,8.710106,7.666234,0.005862,0.154548,0.188122
28.720,460600,1.019930,7.718906,6.813898,0.039836,0.130966,0.194651
28.740,460620,0.656011,7.182605,6.473921,0.152017,0.072345,0.133231
28.760,460640,0.895431,6.914454,6.301539,0.257270,0.041568,0.062485
28.780,460660,0.785298,6.359000,6.406884,0.270859,0.057822,0.068881
28.800,460680,0.991199,7.019799,6.856994,0.213703,0.064351,0.058622
28.820,460700,1.211466,7.570466,7.369353,0.112714,0.174933,-0.015721
28.840,460720,1.197101,7.627927,7.378930,0.005729,0.259534,-0.081671
28.860,460740,1.259350,7.422025,7.436390,-0.050894,0.320421,-0.084202
28.880,460760,1.316811,7.244854,7.321469,-0.104320,0.365853,-0.043966
28.900,460780,1.407791,7.000646,6.900089,-0.148153,0.426074,0.022116
28.920,460800,1.671153,6.871359,6.478710,-0.101922,0.454452,0.089531
28.940,460820,2.049437,6.751649,6.057330,0.010392,0.432602,0.162542
28.960,460840,2.178724,6.684611,5.971139,0.135629,0.331346,0.245545
28.980,460860,1.723825,6.660669,6.066907,0.165473,0.259268,0.271925
29.000,460880,1.484405,6.497863,6.282385,0.142691,0.203044,0.222230
29.020,460900,1.450886,6.440403,6.416461,0.137361,0.123239,0.160544
29.040,460920,1.522712,6.564901,6.349423,0.134564,0.030110,0.114712
29.060,460940,1.776498,6.742072,6.105214,0.149752,-0.054092,0.089931
29.080,460960,1.991976,7.058106,6.023811,0.163075,-0.131499,0.081404
29.100,460980,1.953669,7.163452,5.995081,0.157080,-0.172668,0.085268
29.120,461000,1.920150,7.149086,5.913678,0.166273,-0.239683,0.095260
29.140,461020,2.164358,7.455544,6.009446,0.173867,-0.284182,0.076475
29.160,461040,2.221819,7.632715,6.033388,0.142957,-0.308430,0.041568
29.180,461060,2.312799,7.762002,5.966351,0.146155,-0.381841,-0.001732
29.200,461080,2.738967,8.135497,5.985504,0.162809,-0.452986,-0.063685
29.220,461100,3.050213,8.398860,6.105214,0.128835,-0.542917,-0.119642
29.240,461120,3.040636,8.552089,6.517017,0.045432,-0.594345,-0.174533
29.260,461140,3.045424,9.126697,6.981492,-0.030643,-0.708524,-0.231822
29.280,461160,2.719813,9.155427,7.374141,-0.150285,-0.695467,-0.289911
29.300,461180,2.695871,9.337387,7.872135,-0.233155,-0.732905,-0.346135
29.320,461200,3.088520,9.725247,7.881712,-0.270593,-0.787930,-0.438198
29.340,461220,2.944868,9.035717,7.723695,-0.347067,-0.740366,-0.412484
29.360,461240,2.652776,7.589619,7.771579,-0.451254,-0.511075,-0.275522
29.380,461260,2.375048,6.512228,7.383718,-0.542518,-0.451387,-0.154815
29.400,461280,2.437297,6.919243,6.651093,-0.483763,-0.518403,-0.174533
29.420,461300,2.590526,7.240066,6.435614,-0.382240,-0.472704,-0.307364
29.440,461320,2.379837,7.053318,6.952762,-0.347067,-0.415681,-0.416747
29.460,461340,2.647987,7.225701,7.302315,-0.352397,-0.345069,-0.455384
29.480,461360,2.451663,6.976704,7.335834,-0.416081,-0.222096,-0.404757
29.500,461380,2.207454,7.067683,7.268796,-0.473104,-0.122573,-0.353729
29.520,461400,2.221819,7.513005,6.809110,-0.462446,-0.052893,-0.380775
29.540,461420,2.389413,7.651869,6.129156,-0.368384,-0.078340,-0.415282
29.560,461440,2.566584,7.340622,5.578490,-0.202778,-0.152017,-0.425674
29.580,461460,2.643199,6.856994,5.401319,-0.072611,-0.205176,-0.396230
29.600,461480,2.542642,6.397307,5.645528,-0.056090,-0.205842,-0.331879
29.620,461500,2.341529,6.330269,5.770026,-0.128435,-0.136296,-0.257669
29.640,461520,2.169147,6.588843,5.913678,-0.192119,-0.063551,-0.201046
29.660,461540,1.987187,6.737284,5.942409,-0.229024,-0.006662,-0.188389
29.680,461560,1.848324,6.627151,6.014235,-0.268727,0.052893,-0.198648
29.700,461580,2.030283,6.799533,6.153099,-0.265796,0.067149,-0.222896
29.720,461600,2.260126,7.043741,6.306327,-0.247810,0.085668,-0.198781
29.740,461620,2.178724,7.000646,6.268020,-0.197449,0.061819,-0.131366
29.760,461640,2.212242,6.919243,6.224925,-0.085934,0.036239,-0.062219
29.780,461660,2.293645,6.909666,6.435614,-0.023848,0.053159,0.024248
29.800,461680,2.264915,7.029376,6.828263,-0.045432,0.143890,0.114979
29.820,461700,2.394202,7.479486,7.244854,-0.116044,0.252740,0.177864
29.840,461720,2.681506,8.039729,7.407660,-0.147753,0.304167,0.216767
29.860,461740,2.767697,8.312668,7.503428,-0.137495,0.306832,0.247810
29.880,461760,3.136404,9.107543,7.603985,-0.054225,0.223828,0.219165
29.900,461780,2.906561,9.016563,7.603985,-0.009326,0.209839,0.218632
29.920,461800,2.537854,9.768343,8.269572,0.004663,0.137628,0.129634
29.940,461820,2.250550,10.041282,8.403648,-0.058089,0.190787,-0.016121
29.960,461840,1.426944,9.500193,8.384495,-0.137095,0.230623,-0.094461
29.980,461860,0.469264,8.748413,7.718906,-0.179196,0.210372,-0.171069
30.000,461880,0.593762,8.255207,6.584054,-0.074476,0.088332,-0.200513
30.020,461900,1.431733,8.183381,5.736507,0.128835,-0.074876,-0.146288
30.040,461920,1.331176,7.412448,5.655105,0.194251,-0.084069,-0.043833
30.060,461940,0.708684,6.703765,6.191406,0.081804,0.038770,0.035839
30.080,461960,0.703895,6.833052,6.732495,-0.106452,0.181328,-0.000933
30.100,461980,1.130063,7.489063,6.947973,-0.242214,0.293109,-0.141891
30.120,462000,1.206678,6.924031,7.350199,-0.309096,0.371449,-0.275389
30.140,462020,0.766145,6.464345,7.283162,-0.381974,0.294175,-0.394498
30.160,462040,1.158794,7.043741,6.986280,-0.371982,0.249142,-0.466176
30.180,462060,1.580173,7.647080,6.426037,-0.327349,0.271392,-0.384505
30.200,462080,1.589750,7.829040,6.191406,-0.250741,0.322420,-0.242881
30.220,462100,1.441309,7.613562,6.239290,-0.196116,0.356260,-0.120175
30.240,462120,1.058237,7.110779,6.435614,-0.217966,0.461247,-0.017187
30.260,462140,0.751779,6.885724,6.382942,-0.344403,0.618060,0.081937
30.280,462160,0.545878,6.895301,6.435614,-0.470972,0.835493,0.164674
30.300,462180,0.244209,6.531382,6.885724,-0.500150,0.586884,0.161743
30.320,462200,0.397437,6.622362,6.828263,-0.469907,0.399294,0.170136
30.340,462220,0.809240,6.947973,6.909666,-0.415681,0.350398,0.215035
30.360,462240,1.149217,6.880936,6.517017,-0.337208,0.253939,0.300037
30.380,462260,0.837971,6.785168,6.378153,-0.253806,0.114712,0.397029
30.400,462280,0.478840,6.660669,6.742072,-0.207841,0.089665,0.399694
30.420,462300,0.612916,6.876147,7.201759,-0.203577,0.086067,0.322553
30.440,462320,0.981623,7.450756,7.225701,-0.206109,0.071812,0.229291
30.460,462340,1.302446,8.092402,7.426814,-0.220098,0.071012,0.161077
30.480,462360,1.369483,8.398860,8.135497,-0.288579,0.117776,0.133764
30.500,462380,2.049437,8.978256,8.494628,-0.405023,0.187989,0.119642
30.520,462400,1.690306,8.365341,8.671799,-0.566766,0.217700,0.206642
30.540,462420,1.699883,8.815451,9.356541,-0.589548,0.076874,0.242214
30.560,462440,1.762132,9.380483,9.763555,-0.517870,0.069680,0.137095
30.580,462460,1.321599,8.221688,9.677363,-0.503214,-0.002398,0.077008
30.600,462480,0.603339,7.105990,9.758766,-0.435933,-0.109250,0.080472
30.620,462500,0.598550,5.975927,8.815451,-0.344270,-0.088599,0.122040
30.640,462520,0.105345,5.080496,8.734048,-0.191720,-0.040103,0.188922
30.660,462540,0.565032,5.109226,8.695741,-0.021317,0.079939,0.136162
30.680,462560,0.751779,5.568913,8.465898,0.133098,-0.000533,0.017187
30.700,462580,1.766921,6.114791,7.795521,0.118309,0.071412,-0.208107
30.720,462600,2.489970,7.015011,8.451532,0.139760,0.091130,-0.230357
30.740,462620,2.810793,6.957550,8.250419,0.073677,0.077141,-0.066349
30.760,462640,2.039860,6.052542,7.498640,-0.021317,-0.039836,0.137095
30.780,462660,1.527501,5.702989,7.091625,-0.017587,-0.200247,0.094194
30.800,462680,1.613692,6.052542,6.919243,0.062619,-0.247410,-0.077141
30.820,462700,1.283292,5.875371,7.168240,0.048629,-0.211838,-0.228891
30.840,462720,1.206678,5.750873,7.326257,-0.035306,-0.157746,-0.375312
30.860,462740,1.441309,6.110003,7.043741,-0.127236,-0.067681,-0.458315
30.880,462760,2.260126,6.789956,7.211336,-0.250208,-0.114312,-0.304700
30.900,462780,2.552219,6.866570,7.120356,-0.382907,-0.356927,-0.056357
30.920,462800,2.068590,6.009446,7.388506,-0.360124,-0.554508,0.137894
30.940,462820,1.283292,5.123591,7.498640,-0.198648,-0.555441,0.181594
30.960,462840,0.545878,4.371812,8.073248,-0.098591,-0.335476,0.180928
30.980,462860,0.383072,5.128380,8.322245,-0.233688,-0.073011,-0.000266
31.000,462880,1.221043,5.832275,8.197746,-0.250208,0.114579,-0.084335
31.020,462900,2.126051,6.402095,7.642292,-0.226093,0.233288,-0.075675
31.040,462920,2.523489,6.550536,7.757214,-0.178263,0.275522,-0.014123
31.060,462940,2.705448,6.287174,8.398860,-0.190920,0.117643,0.127103
31.080,462960,2.489970,6.119579,8.283937,-0.076608,-0.010126,0.223828
31.100,462980,2.346318,6.177041,8.638280,0.072078,-0.032908,0.292443
31.120,463000,1.661576,6.244078,9.069236,0.251008,0.283383,0.199847
31.140,463020,1.565808,7.273585,9.083601,0.270459,0.448989,0.069014
31.160,463040,2.815581,8.576031,8.944737,0.353063,0.308564,0.117110
31.180,463060,3.586514,9.208099,8.638280,0.166806,0.415815,0.460580
31.200,463080,2.202666,9.821015,8.643068,0.160677,0.507211,0.914366
31.220,463100,0.402226,9.730036,8.097190,0.208507,0.702795,1.110482
31.240,463120,-1.431733,9.519346,8.724471,0.216368,1.035740,1.135930
31.260,463140,-0.502782,9.299079,7.704541,0.484962,1.419446,1.376945
31.280,463160,-0.316035,9.160215,7.019799,0.806982,1.878960,1.699231
31.300,463180,0.363919,9.112331,6.421249,0.992839,2.178997,1.955168
31.320,463200,0.440533,8.178593,6.119579,1.140593,2.276522,2.178597
31.340,463220,-0.076614,6.818686,5.861006,1.227326,2.388037,2.355262
31.360,463240,0.143652,6.215348,6.938396,1.245312,2.408021,2.431470
31.380,463260,-0.019154,6.071695,7.862558,1.065050,2.439997,2.286115
31.400,463280,-0.124498,5.918467,8.245630,0.833095,2.594012,2.031377
31.420,463300,0.478840,5.530606,8.350976,0.668821,2.621458,1.823270
31.440,463320,1.958457,5.865794,8.015787,0.574893,2.484896,1.643940
31.460,463340,3.016694,6.033388,7.508216,0.501216,2.218300,1.594645
31.480,463360,3.203442,5.932832,6.900089,0.381841,1.890818,1.524965
31.500,463380,2.911349,6.090849,6.947973,0.296040,1.554675,1.413850
31.520,463400,2.446874,6.062119,7.187394,0.196649,1.276089,1.193086
31.540,463420,2.102109,5.822699,7.235278,0.075942,1.010959,0.965926
31.560,463440,1.762132,5.779603,6.842628,0.022916,0.821504,0.702395
31.580,463460,1.623269,5.612009,6.512228,0.090597,0.783133,0.451920
31.600,463480,2.087744,5.233725,6.129156,0.111781,0.784066,0.255538
31.620,463500,2.782062,6.181829,5.961562,-0.003464,0.687340,0.213570
31.640,463520,2.901772,6.890512,5.430049,-0.062086,0.505613,0.375579
31.660,463540,2.446874,7.484274,5.908890,-0.072211,0.280452,0.458848
31.680,463560,2.724602,7.781156,6.320693,0.007727,0.230090,0.410619
31.700,463580,3.102885,7.637504,6.756437,0.091930,0.109516,0.390234
31.720,463600,3.711013,7.833828,6.995857,0.024381,-0.098591,0.381841
31.740,463620,3.993528,8.307879,6.890512,-0.011724,-0.284982,0.374646
31.760,463640,4.716578,9.414001,7.527370,-0.041568,-0.333744,0.267395
31.780,463660,5.061342,9.749189,6.957550,-0.109916,-0.367052,0.166273
31.800,463680,2.935291,8.350976,6.837840,-0.049962,-0.421277,0.071812
31.820,463700,2.743755,8.748413,8.034941,-0.072744,-0.371049,-0.072078
31.840,463720,2.829947,8.757990,7.982268,-0.237685,-0.194518,-0.087933
31.860,463740,1.268927,6.971915,7.469909,-0.350398,-0.096060,0.062752
31.880,463760,1.063026,6.363788,7.493851,-0.398761,-0.064750,0.114979
31.900,463780,1.201889,6.670246,7.656657,-0.412084,-0.049828,0.151084
31.920,463800,1.474828,7.426814,8.092402,-0.466443,-0.031975,0.194518
31.940,463820,1.551443,7.594408,8.451532,-0.380109,0.010658,0.093928
31.960,463840,1.810017,7.776367,8.781932,-0.351064,0.019585,-0.169737
31.980,463860,2.006341,7.522582,8.556877,-0.322819,0.026113,-0.374513
32.000,463880,1.900996,7.062895,8.403648,-0.248210,0.014522,-0.482697
32.020,463900,2.839523,7.067683,7.857770,-0.024914,0.027312,-0.393299
32.040,463920,2.513912,6.675035,7.431602,0.018519,0.080738,-0.316557
32.060,463940,2.647987,6.507440,6.440403,0.029577,0.146021,-0.223296
32.080,463960,2.039860,6.277597,6.852205,-0.088599,0.269527,-0.221697
32.100,463980,2.389413,6.502652,6.574478,-0.264864,0.273124,-0.278986
32.120,464000,2.398990,6.670246,6.143522,-0.288712,0.241015,-0.290311
32.140,464020,2.638410,6.885724,6.272809,-0.281384,0.131233,-0.177331
32.160,464040,2.523489,6.540959,6.445191,-0.199314,-0.004130,-0.007861
32.180,464060,1.891419,5.722142,6.397307,-0.025447,-0.186657,0.091530
32.200,464080,1.790863,5.659893,6.607996,0.007328,-0.216101,0.113113
32.220,464100,2.126051,6.090849,6.813898,0.040236,-0.275922,0.140159
32.240,464120,2.303222,6.081272,6.517017,0.123905,-0.396496,0.210772
32.260,464140,1.187524,5.487510,7.584831,0.169337,-0.448057,0.221297
32.280,464160,1.604115,5.832275,7.819463,0.079939,-0.375312,0.240349
32.300,464180,1.848324,6.478710,8.034941,-0.022649,-0.261666,0.304300
32.320,464200,2.116474,7.058106,8.082825,-0.039436,-0.190787,0.256870
32.340,464220,2.499547,7.311892,7.915231,-0.026113,-0.146421,0.147620
32.360,464240,2.930503,7.623138,7.838616,-0.023582,-0.171069,0.058888
32.380,464260,3.083732,8.135497,7.747637,0.021184,-0.146021,-0.018652
32.400,464280,3.916914,8.738836,7.852982,0.019052,-0.106718,0.018786
32.420,464300,3.136404,8.437167,7.699753,0.000533,-0.083936,0.073410
32.440,464320,3.548207,8.834604,8.374918,-0.089398,-0.007594,0.007594
32.460,464340,3.682282,9.188946,8.121132,-0.208507,0.081538,0.033308
32.480,464360,2.604892,8.714894,7.015011,-0.231956,0.171202,-0.046631
32.500,464380,2.126051,8.082825,6.244078,-0.167205,0.204110,-0.209706
32.520,464400,2.126051,7.326257,6.124368,-0.109116,0.231423,-0.301502
32.540,464420,2.384625,6.555324,6.028600,-0.141891,0.266596,-0.229291
32.560,464440,2.432509,6.517017,5.928043,-0.195983,0.329348,-0.031043
32.580,464460,2.446874,7.422025,6.105214,-0.195317,0.347734,0.071812
32.600,464480,2.341529,8.494628,6.421249,-0.094861,0.339873,-0.004796
32.620,464500,1.857901,8.264784,6.991069,-0.003864,0.323885,-0.154681
32.640,464520,1.259350,7.474698,7.091625,0.010925,0.311228,-0.369184
32.660,464540,1.077391,6.526594,7.287950,-0.055957,0.305766,-0.552510
32.680,464560,2.059013,6.967127,7.053318,-0.183992,0.276188,-0.630051
32.700,464580,3.193865,7.876924,6.521805,-0.204243,0.155481,-0.593545
32.720,464600,3.035848,7.244854,6.359000,-0.156547,-0.007594,-0.506812
32.740,464620,2.298434,6.253655,6.440403,-0.170270,-0.142824,-0.561969
32.760,464640,1.848324,5.899313,6.430826,-0.248210,-0.222496,-0.764881
32.780,464660,1.857901,6.062119,6.239290,-0.366386,-0.227825,-0.872398
32.800,464680,1.723825,5.746084,6.009446,-0.467775,-0.197848,-0.892383
32.820,464700,1.877054,5.928043,5.784391,-0.539587,-0.232755,-0.963795
32.840,464720,1.623269,6.622362,5.827487,-0.556640,-0.334011,-1.055458
32.860,464740,0.952892,6.722919,6.023811,-0.530394,-0.344936,-1.087034
32.880,464760,0.469264,6.445191,6.196194,-0.515072,-0.314426,-1.048930
32.900,464780,0.474052,6.789956,6.220136,-0.518936,-0.304433,-1.032809
32.920,464800,1.053449,7.709330,6.430826,-0.474969,-0.310828,-1.008560
32.940,464820,0.857124,8.212111,7.101202,-0.401825,-0.333345,-0.945809
32.960,464840,0.957681,8.552089,7.407660,-0.346135,-0.371715,-0.929688
32.980,464860,1.221043,8.796297,7.685388,-0.322686,-0.347201,-0.885721
33.000,464880,1.379060,9.165004,8.116343,-0.311628,-0.281251,-0.780602
33.020,464900,1.795651,9.414001,8.173804,-0.337075,-0.227959,-0.725977
33.040,464920,0.593762,8.283937,8.848969,-0.333877,-0.259801,-0.727443
33.060,464940,0.871489,8.513782,9.835381,-0.403024,-0.237152,-0.857476
33.080,464960,0.521936,8.542512,9.974244,-0.485095,-0.205976,-0.893449
33.100,464980,-0.459687,7.402872,9.404425,-0.474703,-0.181194,-0.933551
33.120,465000,-1.613692,5.951985,8.762778,-0.435266,-0.154415,-0.991773
33.140,465020,-1.575385,5.401319,8.868123,-0.442861,-0.032242,-0.999367
33.160,465040,0.378284,6.464345,8.408437,-0.497752,0.062352,-0.851214
33.180,465060,0.852336,6.976704,7.939173,-0.392233,-0.047031,-0.565966
33.200,465080,-0.474052,6.239290,7.958326,-0.296306,-0.185591,-0.460314
33.220,465100,-1.637634,5.659893,8.585608,-0.262332,-0.216767,-0.573161
33.240,465120,-1.508347,5.923255,9.255983,-0.320288,-0.155481,-0.692936
33.260,465140,-0.995988,6.344635,8.805874,-0.366652,-0.098724,-0.688273
33.280,465160,-0.445322,6.435614,8.039729,-0.284715,-0.161343,-0.647104
33.300,465180,-0.670376,5.726931,8.231265,-0.164940,-0.277254,-0.599008
33.320,465200,-0.794875,5.003881,8.513782,-0.175466,-0.337342,-0.593279
33.340,465220,-0.656011,4.774038,8.350976,-0.251008,-0.305233,-0.551977
33.360,465240,-0.210690,4.826711,8.092402,-0.309896,-0.297505,-0.445525
33.380,465260,-0.531513,4.687847,7.939173,-0.322153,-0.311761,-0.333611
33.400,465280,-0.952892,4.596867,8.259995,-0.319355,-0.281651,-0.308697
33.420,465300,-1.154005,4.434062,8.418014,-0.302968,-0.224361,-0.321887
33.440,465320,-0.837971,4.606444,8.499416,-0.298305,-0.152949,-0.326017
33.460,465340,-0.354342,4.922479,8.312668,-0.244479,-0.128701,-0.289378
33.480,465360,-0.220267,4.860229,8.154651,-0.142557,-0.153482,-0.237418
33.500,465380,-0.359130,4.678270,8.125920,-0.019319,-0.237285,-0.176398
33.520,465400,-0.497994,4.319140,8.489840,0.045165,-0.270859,-0.142291
33.540,465420,-0.474052,4.941632,9.232041,0.016521,-0.259002,-0.135763
33.560,465440,-0.306458,5.731719,9.533711,-0.011058,-0.199580,-0.154815
33.580,465460,-0.665588,5.813122,9.658210,0.013323,-0.165340,-0.164274
33.600,465480,-0.158017,6.038177,9.897630,0.034507,-0.126836,-0.177464
33.620,465500,0.100556,6.291962,10.084377,0.001199,-0.098858,-0.125637
33.640,465520,-0.038307,7.206547,10.323798,-0.008793,-0.088199,-0.051960
33.660,465540,0.287304,8.010999,10.515334,-0.022116,-0.037438,-0.035306
33.680,465560,-0.028730,7.627927,10.237606,0.033175,-0.058355,-0.000533
33.700,465580,0.430956,7.771579,10.577583,0.044499,-0.090597,-0.020518
33.720,465600,0.081403,7.283162,10.467450,-0.002398,-0.210106,-0.028511
33.740,465620,-0.282516,6.512228,10.266336,-0.065816,-0.326417,-0.185858
33.760,465640,-0.565032,5.798757,9.591172,-0.104320,-0.544116,-0.427139
33.780,465660,-0.608127,5.286397,8.810662,-0.087666,-0.834694,-0.734371
33.800,465680,-0.090980,5.396531,8.619126,-0.061420,-1.113946,-0.936616
33.820,465700,-0.047884,5.525817,8.341399,-0.070080,-1.270760,-0.951005
33.840,465720,-0.454898,5.310339,8.030152,-0.071812,-1.332446,-0.908770
33.860,465740,-0.761356,5.406107,8.336611,-0.081538,-1.350965,-0.934484
33.880,465760,-1.034295,5.851429,8.528147,-0.126570,-1.310329,-1.018286
33.900,465780,-0.459687,6.646304,8.676587,-0.085668,-1.253839,-0.993106
33.920,465800,-0.225055,6.799533,8.336611,-0.003997,-1.284216,-0.790994
33.940,465820,0.263362,6.579266,7.958326,0.012790,-1.347101,-0.383706
33.960,465840,-1.704672,5.003881,8.255207,-0.017720,-1.210939,-0.129634
33.980,465860,-2.499547,4.395754,8.054094,-0.045698,-0.921960,-0.187723
34.000,465880,-1.067814,5.664681,7.465121,-0.025580,-0.820704,-0.271525
34.020,465900,-0.311246,6.258443,7.168240,0.005729,-0.765813,-0.196383
34.040,465920,-0.603339,5.961562,7.666234,-0.000133,-0.655764,-0.158012
34.060,465940,-0.665588,5.640739,8.010999,-0.058888,-0.484029,-0.203444
34.080,465960,-0.124498,5.588067,8.341399,-0.084469,-0.325484,-0.180928
34.100,465980,0.215478,5.659893,8.025364,-0.044233,-0.260467,-0.087400
34.120,466000,0.866701,6.014235,7.192182,0.010658,-0.236485,0.049962
34.140,466020,0.833182,5.473145,6.947973,0.046098,-0.156014,0.164674
34.160,466040,0.459687,5.018247,7.206547,0.015055,-0.088066,0.184525
34.180,466060,0.253785,5.339070,7.177817,-0.033974,-0.045832,0.108717
34.200,466080,0.244209,6.473921,7.738060,-0.013590,-0.005196,0.046098
34.220,466100,0.454898,7.661446,7.584831,0.072877,0.042234,0.075675
34.240,466120,0.411803,8.418014,7.479486,0.058089,0.277787,0.265530
34.260,466140,-0.766145,9.069236,7.129933,0.034773,0.828831,0.707058
34.280,466160,-1.738190,10.946290,6.555324,0.101256,1.682844,1.445026
34.300,466180,-1.762132,11.506534,6.665458,0.355727,2.507545,2.127836
34.320,466200,-2.633622,10.520123,8.054094,0.804850,2.997836,2.570830
34.340,466220,-1.766921,10.486604,9.289502,1.052793,3.418181,2.975720
34.360,466240,-1.781286,9.624691,9.892841,1.150185,3.751658,3.344371
