Time(s),Time(ms),AccelX,AccelY,AccelZ,GyroX,GyroY,GyroZ
0.000,805860,6.904878,4.898537,5.880159,-0.171602,0.076475,0.006129
0.020,805880,6.909666,4.893748,5.880159,-0.177198,0.074876,0.010126
0.040,805900,6.967127,4.917690,5.956774,-0.167738,0.081671,0.006528
0.060,805920,7.149086,4.903325,6.004658,-0.158279,0.093662,0.014655
0.080,805940,7.268796,4.946421,5.980716,-0.148153,0.085668,0.010792
0.100,805960,7.378930,5.037400,6.033388,-0.130700,0.052760,-0.009060
0.120,805980,7.431602,4.984728,6.076484,-0.113646,0.021850,-0.027712
0.140,806000,7.426814,4.927267,6.076484,-0.115645,-0.002398,-0.025314
0.160,806020,7.422025,4.946421,6.028600,-0.118975,-0.031709,-0.020384
0.180,806040,7.249643,4.869806,5.951985,-0.132698,-0.059821,-0.005063
0.200,806060,7.134721,4.845864,5.817910,-0.137761,-0.092329,0.021317
0.220,806080,6.995857,4.759673,5.702989,-0.150418,-0.123505,0.051028
0.240,806100,6.991069,4.711789,5.564125,-0.155348,-0.161609,0.094594
0.260,806120,6.967127,4.783615,5.607220,-0.170403,-0.197848,0.136828
0.280,806140,7.283162,4.903325,5.726931,-0.166406,-0.234487,0.151217
0.300,806160,7.402872,4.836287,5.813122,-0.179462,-0.233954,0.166273
0.320,806180,7.666234,5.147533,6.191406,-0.207574,-0.265796,0.181328
0.340,806200,8.916007,5.583278,6.646304,-0.201712,-0.306432,0.142691
0.360,806220,9.141062,5.487510,6.670246,-0.240482,-0.235553,0.130300
0.380,806240,8.418014,5.453991,6.866570,-0.272191,-0.200779,0.145888
0.400,806260,7.738060,5.204995,6.842628,-0.276322,-0.135096,0.112847
0.420,806280,6.933608,4.807557,6.823475,-0.300836,-0.085934,0.075009
0.440,806300,7.331046,4.687847,6.746861,-0.298038,-0.102721,0.045299
0.460,806320,7.656657,4.410120,6.435614,-0.311761,-0.087000,0.078873
0.480,806340,7.690176,4.458004,6.373365,-0.302701,-0.142557,0.104453
0.500,806360,7.680599,4.491522,6.306327,-0.273524,-0.204110,0.069014
0.520,806380,7.345411,4.338294,6.157887,-0.247810,-0.244879,0.025847
0.540,806400,7.058106,4.213795,6.220136,-0.220631,-0.285248,-0.027845
0.560,806420,6.833052,4.094085,6.138733,-0.195051,-0.294974,-0.097659
0.580,806440,6.641516,3.979163,6.100426,-0.183593,-0.294175,-0.158012
0.600,806460,6.641516,3.892972,6.081272,-0.191054,-0.293375,-0.207708
0.620,806480,6.718130,3.873818,6.167464,-0.220631,-0.280185,-0.239550
0.640,806500,6.775591,3.916914,6.263232,-0.255005,-0.237418,-0.249009
0.660,806520,6.804321,4.079720,6.368577,-0.285515,-0.185591,-0.253273
0.680,806540,6.904878,4.295198,6.387730,-0.294841,-0.130433,-0.271392
0.700,806560,6.976704,4.390966,6.497863,-0.289911,-0.071678,-0.296040
0.720,806580,7.105990,4.572925,6.694188,-0.282717,-0.007861,-0.311095
0.740,806600,7.393295,4.750096,6.823475,-0.268594,0.057689,-0.328415
0.760,806620,7.422025,4.807557,6.780379,-0.253406,0.123505,-0.323086
0.780,806640,7.283162,4.774038,6.631939,-0.226360,0.146288,-0.303501
0.800,806660,7.541735,4.850653,6.344635,-0.184792,0.112047,-0.283783
0.820,806680,7.747637,4.821922,6.291962,-0.131632,0.059421,-0.244213
0.840,806700,7.603985,4.625597,6.248867,-0.092596,0.007061,-0.178530
0.860,806720,7.431602,4.453215,6.133945,-0.077407,-0.036639,-0.120574
0.880,806740,7.369353,4.419696,6.062119,-0.073943,-0.073810,-0.090997
0.900,806760,7.177817,4.362236,6.033388,-0.080338,-0.086467,-0.086334
0.920,806780,7.043741,4.386178,6.071695,-0.094461,-0.081937,-0.096326
0.940,806800,7.019799,4.434062,6.148310,-0.115245,-0.054758,-0.106585
0.960,806820,7.129933,4.438850,6.205771,-0.137095,-0.023049,-0.106718
0.980,806840,7.278373,4.534618,6.177041,-0.159611,0.005196,-0.099524
1.000,806860,7.436390,4.630386,6.133945,-0.159345,0.023982,-0.091130
1.020,806880,7.378930,4.702212,6.186617,-0.142957,0.034507,-0.080472
1.040,806900,7.378930,4.750096,6.253655,-0.112447,0.047697,-0.073943
1.060,806920,7.287950,4.692636,6.306327,-0.084335,0.071545,-0.059021
1.080,806940,7.359776,4.582502,6.239290,-0.059288,0.074609,-0.039436
1.100,806960,7.465121,4.534618,6.148310,-0.031842,0.053825,-0.003864
1.120,806980,7.589619,4.510676,6.110003,-0.003997,0.007861,0.017853
1.140,807000,7.632715,4.501099,6.009446,0.031842,-0.085934,0.025980
1.160,807020,7.642292,4.448427,5.813122,0.057289,-0.231423,0.033308
1.180,807040,7.513005,4.290410,5.712565,0.073144,-0.363588,0.059821
1.200,807060,7.316680,4.218584,5.731719,0.115511,-0.423009,0.067948
1.220,807080,7.383718,4.022259,5.674258,0.105786,-0.357859,0.080738
1.240,807100,7.623138,4.012682,5.674258,0.068614,-0.304833,0.129501
1.260,807120,7.661446,4.185065,5.765238,0.031842,-0.230757,0.181328
1.280,807140,7.910442,4.797980,6.143522,-0.007861,-0.197315,0.181061
1.300,807160,9.289502,5.286397,6.421249,0.010925,-0.133364,0.115778
1.320,807180,8.461109,5.013458,6.133945,0.004663,-0.019185,0.181727
1.340,807200,8.508993,5.430049,6.301539,0.027979,-0.033708,0.158145
1.360,807220,8.240842,5.262455,6.066907,0.054891,0.026247,0.118309
1.380,807240,7.967903,5.118803,6.014235,0.078473,0.021051,0.107917
1.400,807260,7.958326,4.960786,5.832275,0.083403,0.041701,0.115112
1.420,807280,7.762002,4.711789,5.726931,0.073410,0.025447,0.154415
1.440,807300,7.551312,4.496311,5.693412,0.044766,0.010259,0.202112
1.460,807320,7.316680,4.395754,5.674258,0.007061,0.023315,0.235286
1.480,807340,7.149086,4.395754,5.650316,-0.031309,0.058355,0.265530
1.500,807360,6.837840,4.400543,5.477933,-0.059554,0.107784,0.277787
1.520,807380,6.713342,4.462792,5.286397,-0.053959,0.118576,0.255804
1.540,807400,6.890512,4.414908,5.176264,-0.022250,0.093528,0.239683
1.560,807420,7.139510,4.429273,5.272032,-0.000133,0.066616,0.233421
1.580,807440,7.584831,4.534618,5.453991,0.004397,0.067282,0.223029
1.600,807460,7.680599,4.601655,5.640739,0.006129,0.112580,0.194251
1.620,807480,7.795521,4.649539,5.659893,0.008793,0.154415,0.144822
1.640,807500,7.829040,4.793192,5.631162,0.007594,0.154548,0.084735
1.660,807520,7.714118,4.927267,5.870583,0.017187,0.169737,-0.016787
1.680,807540,7.321469,4.941632,6.038177,-0.002531,0.246877,-0.119508
1.700,807560,7.426814,4.936844,6.244078,-0.011591,0.311495,-0.197582
1.720,807580,7.508216,4.544195,6.105214,-0.045565,0.387037,-0.205976
1.740,807600,7.738060,4.247314,5.865794,-0.109383,0.384239,-0.170536
1.760,807620,7.982268,4.141969,5.525817,-0.168937,0.325351,-0.082204
1.780,807640,7.776367,4.299986,5.511452,-0.197715,0.239417,-0.003864
1.800,807660,7.426814,4.515464,5.635951,-0.187057,0.166006,-0.001998
1.820,807680,7.369353,4.553771,5.760449,-0.148286,0.120175,-0.034907
1.840,807700,7.570466,4.491522,5.846641,-0.117776,0.118176,-0.051960
1.860,807720,7.699753,4.395754,5.770026,-0.099923,0.129767,-0.056224
1.880,807740,7.575254,4.405331,5.793968,-0.091397,0.112714,-0.060087
1.900,807760,7.627927,4.443638,5.899313,-0.074210,0.081271,-0.073277
1.920,807780,7.728483,4.491522,5.937620,-0.065816,0.059288,-0.102055
1.940,807800,7.876924,4.434062,5.841852,-0.060221,0.036239,-0.127636
1.960,807820,7.829040,4.314352,5.750873,-0.062219,0.006528,-0.123905
1.980,807840,7.661446,4.367024,5.803545,-0.069946,-0.026646,-0.116178
2.000,807860,7.546524,4.505888,5.832275,-0.071812,-0.051560,-0.113913
2.020,807880,7.426814,4.601655,5.827487,-0.067815,-0.053559,-0.105253
2.040,807900,7.244854,4.587290,5.784391,-0.059821,-0.045698,-0.095527
2.060,807920,7.335834,4.582502,5.741296,-0.047830,-0.058089,-0.072877
2.080,807940,7.541735,4.673482,5.736507,-0.045165,-0.060087,-0.032109
2.100,807960,7.445967,4.683059,5.731719,-0.044899,-0.057556,0.010126
2.120,807980,7.335834,4.783615,5.894525,-0.058222,-0.077541,0.035040
2.140,808000,7.809886,5.070919,6.143522,-0.070613,-0.106319,0.025980
2.160,808020,8.863335,5.415684,6.426037,-0.077274,-0.132299,-0.026113
2.180,808040,9.203311,5.348647,6.210559,-0.095793,-0.081404,-0.052227
2.200,808060,7.920019,5.118803,6.445191,-0.142291,-0.032375,-0.002531
2.220,808080,7.110779,4.989516,6.813898,-0.152550,0.028112,0.023582
2.240,808100,6.622362,4.807557,6.971915,-0.187456,0.132698,0.032375
2.260,808120,7.168240,4.821922,6.880936,-0.187057,0.184925,0.028511
2.280,808140,7.575254,4.730943,6.473921,-0.177997,0.188522,0.041035
2.300,808160,7.584831,4.716578,6.258443,-0.156280,0.108583,0.063418
2.320,808180,7.599196,4.793192,6.215348,-0.120841,0.001466,0.055291
2.340,808200,7.374141,4.697424,6.057330,-0.083669,-0.081538,0.039836
2.360,808220,7.110779,4.625597,5.923255,-0.059688,-0.157746,0.021317
2.380,808240,6.847417,4.438850,5.765238,-0.050761,-0.220897,-0.009459
2.400,808260,6.876147,4.381389,5.669470,-0.051028,-0.277787,-0.020518
2.420,808280,7.048530,4.386178,5.707777,-0.053426,-0.326017,-0.032508
2.440,808300,7.220912,4.371812,5.813122,-0.053959,-0.348799,-0.050894
2.460,808320,7.211336,4.285621,5.923255,-0.074210,-0.330946,-0.058755
2.480,808340,7.335834,4.266468,5.947197,-0.106851,-0.287513,-0.051294
2.500,808360,7.498640,4.429273,6.014235,-0.138427,-0.235153,-0.053559
2.520,808380,7.426814,4.572925,6.172252,-0.161210,-0.167738,-0.075142
2.540,808400,7.469909,4.572925,6.306327,-0.173867,-0.087000,-0.104054
2.560,808420,7.618350,4.568137,6.363788,-0.191720,-0.009060,-0.116044
2.580,808440,7.991845,4.678270,6.306327,-0.196250,0.044499,-0.112314
2.600,808460,7.843405,4.630386,6.081272,-0.184792,0.088865,-0.096859
2.620,808480,7.757214,4.625597,5.995081,-0.147354,0.045965,-0.098191
2.640,808500,7.996634,4.481946,5.798757,-0.104587,-0.005462,-0.101123
2.660,808520,8.010999,4.309563,5.702989,-0.067681,-0.062619,-0.073011
2.680,808540,7.781156,4.170700,5.621585,-0.051427,-0.114446,-0.032775
2.700,808560,7.460332,4.141969,5.688623,-0.046098,-0.149752,-0.018786
2.720,808580,7.383718,4.165911,5.741296,-0.053959,-0.138427,-0.029311
2.740,808600,7.436390,4.089296,5.731719,-0.075009,-0.084602,-0.049828
2.760,808620,7.565677,4.079720,5.793968,-0.106585,-0.057689,-0.060221
2.780,808640,7.886500,4.180276,5.784391,-0.131100,-0.055158,-0.057822
2.800,808660,7.987057,4.165911,5.731719,-0.134963,-0.068614,-0.039836
2.820,808680,7.747637,4.204218,5.717354,-0.129634,-0.070213,-0.025980
2.840,808700,7.742848,4.228160,5.707777,-0.105652,-0.069946,-0.026113
2.860,808720,7.733272,4.185065,5.731719,-0.089132,-0.053426,-0.017187
2.880,808740,7.848193,4.223372,5.726931,-0.070479,-0.049562,-0.004663
2.900,808760,7.862558,4.185065,5.597643,-0.052493,-0.051028,0.017853
2.920,808780,7.881712,4.094085,5.521029,-0.037971,-0.073277,0.045698
2.940,808800,7.809886,3.988740,5.511452,-0.033308,-0.094328,0.082603
2.960,808820,7.623138,3.969586,5.497087,-0.030377,-0.101256,0.123772
2.980,808840,7.517793,4.089296,5.482722,-0.027046,-0.099657,0.150152
3.000,808860,7.225701,4.285621,5.343858,-0.000533,-0.106452,0.162276
3.020,808880,7.067683,4.247314,5.319916,0.075675,-0.184259,0.181727
3.040,808900,7.192182,4.295198,5.679047,0.112847,-0.196383,0.216900
3.060,808920,9.236830,5.109226,6.497863,0.112181,-0.196649,0.171602
3.080,808940,10.041282,4.874595,6.028600,0.102988,0.008260,0.204910
3.100,808960,8.528147,4.788404,6.019023,0.001332,0.074876,0.336675
3.120,808980,8.532935,5.243302,6.095637,0.003597,0.092596,0.295374
3.140,809000,8.633492,5.444415,5.985504,0.046231,0.076208,0.212371
3.160,809020,8.633492,5.463568,5.961562,0.130833,0.046897,0.162409
3.180,809040,8.389283,5.123591,5.861006,0.181994,0.035839,0.139760
3.200,809060,8.288726,4.793192,5.635951,0.196250,0.003597,0.161609
3.220,809080,8.140285,4.635174,5.415684,0.208374,-0.076874,0.225294
3.240,809100,7.929596,4.582502,5.013458,0.250608,-0.220364,0.295240
3.260,809120,7.522582,4.319140,4.611232,0.319089,-0.371182,0.383040
3.280,809140,7.455544,4.405331,4.467580,0.358259,-0.516804,0.462579
3.300,809160,7.618350,4.314352,4.481946,0.395164,-0.619659,0.501482
3.320,809180,7.651869,4.122815,4.692636,0.357726,-0.524132,0.483230
3.340,809200,8.073248,4.084508,4.572925,0.286714,-0.344403,0.439663
3.360,809220,8.279149,4.228160,4.702212,0.211971,-0.197049,0.405822
3.380,809240,8.283937,4.477157,4.797980,0.175865,-0.068348,0.313626
3.400,809260,8.178593,4.721366,4.917690,0.155081,0.049296,0.172534
3.420,809280,8.020576,4.730943,4.932055,0.129634,0.174666,0.009859
3.440,809300,8.288726,4.596867,4.903325,0.081404,0.293642,-0.109383
3.460,809320,8.599973,4.204218,4.620809,0.048896,0.335876,-0.139760
3.480,809340,8.892065,3.974375,4.347870,0.043567,0.258868,-0.102455
3.500,809360,9.016563,3.950433,4.271256,0.038637,0.168538,-0.046897
3.520,809380,8.829816,3.811569,4.410120,-0.019052,0.192253,-0.012524
3.540,809400,8.580819,3.600879,4.630386,-0.159211,0.365054,-0.001466
3.560,809420,8.446744,3.371036,4.759673,-0.355461,0.659894,-0.009193
3.580,809440,8.504205,3.466804,4.635174,-0.495620,0.833095,-0.024248
3.600,809460,8.911219,3.840300,4.400543,-0.472838,0.588216,-0.028911
3.620,809480,9.030929,4.041412,4.458004,-0.372914,0.237951,-0.060887
3.640,809500,8.523358,3.945644,4.697424,-0.324285,0.063818,-0.111381
3.660,809520,8.192958,3.830723,4.826711,-0.310562,-0.012923,-0.135230
3.680,809540,8.082825,3.840300,4.788404,-0.318822,-0.026513,-0.127502
3.700,809560,7.982268,4.055778,4.869806,-0.325484,-0.028911,-0.151750
3.720,809580,7.814674,4.108450,4.855441,-0.308297,-0.021850,-0.195184
3.740,809600,7.671022,4.050989,4.826711,-0.286714,-0.009459,-0.209306
3.760,809620,7.867347,3.993528,4.888960,-0.280452,-0.014522,-0.193985
3.780,809640,8.231265,4.022259,4.898537,-0.274590,-0.035573,-0.161210
3.800,809660,8.485051,4.094085,4.917690,-0.267262,-0.069147,-0.107651
3.820,809680,8.485051,4.118027,5.032612,-0.255271,-0.104587,-0.046498
3.840,809700,8.571242,4.199430,5.238513,-0.248876,-0.143890,-0.003464
3.860,809720,9.385271,4.529830,5.702989,-0.264597,-0.207041,0.001066
3.880,809740,10.510546,4.683059,5.530606,-0.266063,-0.187590,-0.010925
3.900,809760,9.145850,4.280833,5.521029,-0.301636,-0.136828,0.031043
3.920,809780,8.738836,4.395754,5.755661,-0.284582,-0.155348,0.001599
3.940,809800,8.068460,4.165911,5.669470,-0.297372,-0.072078,-0.048096
3.960,809820,7.896077,4.027047,5.726931,-0.286980,-0.043300,-0.083802
3.980,809840,8.111555,3.859453,5.664681,-0.279253,0.002931,-0.083003
4.000,809860,8.130709,3.763685,5.621585,-0.278054,0.029577,-0.046764
4.020,809880,8.255207,3.907337,5.621585,-0.273124,0.032775,-0.026380
4.040,809900,8.044518,3.945644,5.664681,-0.243813,0.023449,-0.038637
4.060,809920,7.843405,3.931279,5.808333,-0.221430,0.016521,-0.069280
4.080,809940,7.867347,3.892972,5.822699,-0.204643,0.019452,-0.120175
4.100,809960,7.723695,3.816358,5.803545,-0.198781,0.022516,-0.166539
4.120,809980,7.575254,3.768473,5.765238,-0.195184,0.008660,-0.210505
4.140,810000,7.417237,3.677494,5.736507,-0.195983,-0.000133,-0.238750
4.160,810020,7.407660,3.591303,5.717354,-0.206775,-0.021317,-0.246611
4.180,810040,7.714118,3.687071,5.726931,-0.222496,-0.046098,-0.242881
4.200,810060,7.809886,3.821146,5.798757,-0.234354,-0.039037,-0.227825
4.220,810080,7.666234,3.931279,5.971139,-0.243680,-0.026779,-0.220498
4.240,810100,7.728483,3.902549,6.129156,-0.250741,0.001732,-0.223962
4.260,810120,7.843405,3.955221,6.210559,-0.269926,0.041968,-0.223029
4.280,810140,8.030152,4.103662,6.253655,-0.270593,0.077274,-0.230623
4.300,810160,8.236053,4.180276,6.291962,-0.270326,0.091130,-0.246478
4.320,810180,8.523358,4.151546,6.234501,-0.267262,0.109116,-0.249675
4.340,810200,8.451532,4.079720,6.042965,-0.267795,0.122706,-0.208907
4.360,810220,8.044518,4.132392,5.937620,-0.256737,0.118176,-0.179596
4.380,810240,7.876924,4.151546,5.846641,-0.212904,0.095926,-0.196250
4.400,810260,7.872135,4.041412,5.755661,-0.167338,0.081138,-0.203178
4.420,810280,7.920019,3.897760,5.674258,-0.133231,0.059954,-0.185458
4.440,810300,7.733272,3.821146,5.616797,-0.115778,0.026113,-0.167871
4.460,810320,7.651869,3.811569,5.645528,-0.107518,-0.009859,-0.161476
4.480,810340,7.680599,3.840300,5.679047,-0.106185,-0.028245,-0.152283
4.500,810360,7.766790,3.883395,5.750873,-0.113247,-0.051960,-0.137361
4.520,810380,7.862558,3.969586,5.827487,-0.114712,-0.046897,-0.125504
4.540,810400,7.963115,4.027047,5.837064,-0.112714,-0.024914,-0.112980
4.560,810420,7.963115,4.098873,5.822699,-0.103654,-0.007194,-0.091263
4.580,810440,7.920019,4.137180,5.861006,-0.085401,0.005995,-0.065417
4.600,810460,7.953538,4.146757,5.827487,-0.058622,0.009992,-0.043833
4.620,810480,8.106767,4.070143,5.774815,-0.033841,-0.003864,-0.021717
4.640,810500,8.178593,3.945644,5.698200,-0.010658,-0.026113,0.015055
4.660,810520,7.939173,3.849876,5.674258,-0.003997,-0.028778,0.068214
4.680,810540,7.728483,3.869030,5.674258,-0.001998,-0.038237,0.098325
4.700,810560,7.623138,3.897760,5.722142,0.003997,-0.030377,0.097259
4.720,810580,7.666234,3.897760,5.693412,0.009193,-0.030910,0.089132
4.740,810600,7.867347,3.936068,5.664681,0.000933,-0.063685,0.108317
4.760,810620,8.030152,4.146757,5.693412,0.004930,-0.106851,0.142957
4.780,810640,8.149862,4.237737,5.928043,0.009459,-0.158945,0.202778
4.800,810660,9.567230,4.663905,6.229713,0.024648,-0.239550,0.252340
4.820,810680,9.739613,4.491522,5.856217,0.034773,-0.131766,0.357992
4.840,810700,8.188169,4.352659,5.789180,0.001066,-0.080472,0.443394
4.860,810720,8.317456,4.659117,5.999869,0.030110,-0.102988,0.395697
4.880,810740,8.829816,4.663905,5.999869,0.064351,-0.049962,0.316957
4.900,810760,8.805874,4.400543,5.985504,0.082737,0.019851,0.282717
4.920,810780,8.489840,4.180276,5.889736,0.075675,0.063285,0.267129
4.940,810800,8.370130,4.204218,5.770026,0.068481,0.081937,0.227559
4.960,810820,8.202535,4.050989,5.702989,0.062752,0.098191,0.174133
4.980,810840,8.078036,3.797204,5.439626,0.049828,0.098191,0.151484
5.000,810860,7.771579,3.667917,5.152322,0.029977,0.075942,0.152816
5.020,810880,7.532158,3.514688,4.955997,0.028778,0.035306,0.148553
5.040,810900,7.417237,3.452439,4.970363,0.028778,-0.011991,0.167472
5.060,810920,7.527370,3.509900,5.090073,0.022649,-0.021317,0.175199
5.080,810940,7.771579,3.567361,5.046977,0.020651,-0.004530,0.175199
5.100,810960,7.867347,3.744531,5.176264,0.015322,0.029711,0.166406
5.120,810980,8.001422,4.017470,5.430049,0.038504,0.079406,0.126570
5.140,811000,8.025364,4.376601,5.698200,0.062752,0.164008,0.045032
5.160,811020,7.982268,4.572925,6.023811,0.088466,0.291510,-0.065683
5.180,811040,8.039729,4.534618,6.095637,0.119508,0.439397,-0.169870
5.200,811060,7.977480,4.266468,5.894525,0.134697,0.562369,-0.225560
5.220,811080,8.279149,4.074931,5.621585,0.143357,0.541585,-0.235819
5.240,811100,8.619126,3.840300,5.363012,0.150285,0.465243,-0.186257
5.260,811120,8.508993,3.591303,5.257667,0.121907,0.356527,-0.107384
5.280,811140,8.303091,3.418920,5.276821,0.071145,0.230890,-0.039170
5.300,811160,8.207323,3.394978,5.286397,0.018652,0.143890,0.013989
5.320,811180,7.872135,3.533842,5.386954,-0.034507,0.106185,0.037971
5.340,811200,7.661446,3.797204,5.521029,-0.067948,0.083403,0.013190
5.360,811220,7.829040,3.955221,5.568913,-0.069014,0.096992,-0.034240
5.380,811240,8.049306,3.993528,5.669470,-0.069547,0.114179,-0.074743
5.400,811260,8.312668,4.074931,5.702989,-0.065417,0.132565,-0.100856
5.420,811280,8.384495,4.127604,5.674258,-0.060354,0.158279,-0.110049
5.440,811300,8.149862,4.165911,5.645528,-0.059554,0.162675,-0.102855
5.460,811320,8.015787,4.218584,5.712565,-0.052360,0.146821,-0.101123
5.480,811340,7.939173,4.199430,5.683835,-0.048363,0.140959,-0.097792
5.500,811360,7.867347,4.118027,5.635951,-0.049429,0.120441,-0.072078
5.520,811380,7.795521,4.055778,5.549759,-0.049429,0.090331,-0.032109
5.540,811400,7.584831,4.041412,5.521029,-0.054225,0.058755,0.011058
5.560,811420,7.637504,4.065354,5.592855,-0.056090,0.017320,0.037971
5.580,811440,7.862558,4.151546,5.640739,-0.057956,-0.022916,0.050894
5.600,811460,7.867347,4.189853,5.659893,-0.061420,-0.059155,0.056757
5.620,811480,8.049306,4.228160,5.793968,-0.066616,-0.118842,0.056224
5.640,811500,8.762778,4.616021,6.167464,-0.085268,-0.193585,0.042634
5.660,811520,10.084377,4.941632,6.215348,-0.071279,-0.239017,0.002665
5.680,811540,9.107543,4.683059,6.196194,-0.116977,-0.184259,0.023715
5.700,811560,8.944737,4.807557,6.387730,-0.120441,-0.205443,0.020118
5.720,811580,8.394072,4.697424,6.320693,-0.154015,-0.134164,0.003864
5.740,811600,8.034941,4.515464,6.177041,-0.157479,-0.096193,-0.018386
5.760,811620,7.647080,4.223372,6.071695,-0.166672,-0.052626,-0.001066
5.780,811640,7.575254,4.118027,5.990293,-0.168671,-0.050495,0.032375
5.800,811660,7.733272,4.156334,5.908890,-0.158012,-0.057556,0.049828
5.820,811680,7.589619,4.141969,5.765238,-0.148286,-0.071412,0.059821
5.840,811700,7.580042,4.132392,5.702989,-0.111648,-0.135096,0.046897
5.860,811720,7.613562,3.969586,5.597643,-0.083136,-0.179462,0.023049
5.880,811740,7.474698,3.720589,5.564125,-0.065283,-0.228625,0.004663
5.900,811760,7.273585,3.687071,5.597643,-0.071279,-0.248609,-0.020118
5.920,811780,7.149086,3.720589,5.731719,-0.083669,-0.257936,-0.072078
5.940,811800,7.369353,3.720589,5.765238,-0.107118,-0.254738,-0.131233
5.960,811820,7.546524,3.763685,5.793968,-0.153749,-0.227692,-0.159211
5.980,811840,7.642292,3.792415,5.904101,-0.195051,-0.199980,-0.187723
6.000,811860,7.747637,3.845088,6.038177,-0.243147,-0.158545,-0.206109
6.020,811880,7.967903,3.988740,6.133945,-0.290444,-0.109116,-0.219032
6.040,811900,8.111555,4.122815,6.157887,-0.324285,-0.055557,-0.229291
6.060,811920,8.221688,4.261679,6.172252,-0.336009,-0.014922,-0.234087
6.080,811940,8.317456,4.352659,6.148310,-0.323485,0.017187,-0.234087
6.100,811960,8.327033,4.362236,6.038177,-0.289112,0.043300,-0.227825
6.120,811980,8.054094,4.218584,5.918467,-0.253139,0.060487,-0.214369
6.140,812000,8.044518,4.232949,5.736507,-0.213703,0.043167,-0.204243
6.160,812020,8.054094,4.132392,5.612009,-0.166939,0.019585,-0.196116
6.180,812040,7.833828,3.974375,5.506664,-0.136029,0.002265,-0.175466
6.200,812060,7.613562,3.926491,5.583278,-0.115778,0.001599,-0.156280
6.220,812080,7.378930,3.869030,5.592855,-0.096992,0.018919,-0.151617
6.240,812100,7.311892,3.864242,5.688623,-0.085934,0.044100,-0.161077
6.260,812120,7.422025,3.873818,5.731719,-0.084469,0.070080,-0.164274
6.280,812140,7.666234,3.912126,5.851429,-0.085135,0.090864,-0.154282
6.300,812160,7.934384,3.912126,5.889736,-0.092329,0.107917,-0.120308
6.320,812180,8.135497,4.027047,5.913678,-0.102455,0.118975,-0.076874
6.340,812200,8.173804,4.137180,5.908890,-0.090997,0.117243,-0.053159
6.360,812220,8.111555,4.146757,5.932832,-0.064750,0.109116,-0.045165
6.380,812240,8.125920,4.108450,5.942409,-0.039303,0.099657,-0.031443
6.400,812260,8.188169,4.031836,5.846641,-0.016521,0.079406,-0.007994
6.420,812280,8.202535,3.888184,5.798757,-0.000666,0.050228,0.024115
6.440,812300,8.197746,3.778050,5.683835,0.003198,0.007727,0.064750
6.460,812320,8.149862,3.706224,5.564125,0.003064,-0.038904,0.095660
6.480,812340,7.939173,3.667917,5.564125,-0.001998,-0.071678,0.112580
6.500,812360,7.666234,3.706224,5.616797,-0.014256,-0.077807,0.121374
6.520,812380,7.589619,3.806781,5.702989,-0.027979,-0.067815,0.124704
6.540,812400,7.704541,3.888184,5.688623,-0.034507,-0.053959,0.130167
6.560,812420,7.958326,4.046201,5.846641,-0.039969,-0.057156,0.154815
6.580,812440,9.203311,4.568137,6.205771,-0.036505,-0.101655,0.172135
6.600,812460,9.878476,4.534618,6.066907,-0.039969,-0.079672,0.198515
6.620,812480,8.628703,4.295198,5.908890,-0.098458,-0.051694,0.266063
6.640,812500,8.638280,4.453215,6.057330,-0.131632,-0.083936,0.277920
6.660,812520,8.437167,4.572925,5.770026,-0.162409,-0.017587,0.281651
6.680,812540,7.987057,4.769250,5.980716,-0.155481,0.047430,0.275655
6.700,812560,7.824251,4.707001,6.181829,-0.117110,0.123505,0.232888
6.720,812580,8.073248,4.520253,5.999869,-0.087666,0.178530,0.181194
6.740,812600,8.264784,4.276044,5.765238,-0.055291,0.187190,0.166939
6.760,812620,7.939173,4.103662,5.525817,-0.028112,0.168804,0.181727
6.780,812640,7.584831,4.050989,5.396531,0.000000,0.108051,0.180395
6.800,812660,7.369353,3.902549,5.276821,0.037305,0.058355,0.164008
6.820,812680,7.469909,3.739743,5.257667,0.066882,0.006662,0.169870
6.840,812700,7.781156,3.749320,5.410896,0.078606,-0.014655,0.202511
6.860,812720,7.738060,3.816358,5.458780,0.070746,0.008926,0.212637
6.880,812740,7.829040,4.017470,5.621585,0.073544,0.031176,0.177864
6.900,812760,8.034941,4.237737,5.765238,0.077541,0.072611,0.114446
6.920,812780,8.121132,4.352659,5.951985,0.081937,0.133098,0.036372
6.940,812800,8.030152,4.333505,6.086061,0.071012,0.205176,-0.038637
6.960,812820,7.920019,4.276044,6.038177,0.054625,0.266329,-0.105253
6.980,812840,8.092402,4.046201,5.774815,0.047963,0.281518,-0.141891
7.000,812860,8.365341,3.854665,5.501875,0.033308,0.254072,-0.107518
7.020,812880,8.255207,3.768473,5.439626,0.010259,0.191054,-0.040369
7.040,812900,8.173804,3.744531,5.468357,0.001466,0.124971,-0.001066
7.060,812920,8.154651,3.734955,5.497087,-0.012790,0.078473,0.027312
7.080,812940,8.207323,3.696647,5.453991,-0.028378,0.043433,0.051427
7.100,812960,8.149862,3.715801,5.506664,-0.042767,0.011724,0.044100
7.120,812980,8.145074,3.830723,5.592855,-0.060620,-0.006262,0.015188
7.140,813000,8.097190,3.998317,5.779603,-0.076874,-0.000533,-0.023715
7.160,813020,8.317456,4.007894,5.755661,-0.082204,-0.013190,-0.073544
7.180,813040,8.667010,3.902549,5.521029,-0.086867,-0.051427,-0.091130
7.200,813060,8.738836,3.825934,5.353435,-0.095394,-0.110049,-0.063018
7.220,813080,8.331821,3.739743,5.348647,-0.109516,-0.165873,-0.032242
7.240,813100,7.982268,3.687071,5.310339,-0.125371,-0.205576,-0.012257
7.260,813120,7.891289,3.648763,5.195418,-0.146421,-0.229024,0.008660
7.280,813140,7.891289,3.596091,5.114015,-0.169204,-0.258069,0.025847
7.300,813160,8.015787,3.576937,5.137957,-0.185591,-0.280319,0.049562
7.320,813180,7.948750,3.605668,5.190629,-0.207441,-0.276455,0.081005
7.340,813200,8.039729,3.773262,5.329493,-0.222763,-0.272858,0.087933
7.360,813220,8.916007,4.161122,5.540183,-0.219032,-0.301103,0.049429
7.380,813240,10.060435,4.367024,5.568913,-0.201046,-0.323752,0.006928
7.400,813260,9.648633,4.343082,5.573701,-0.217966,-0.276455,0.005729
7.420,813280,8.604761,4.299986,5.746084,-0.232622,-0.252207,-0.033708
7.440,813300,7.929596,4.089296,5.645528,-0.234087,-0.191587,-0.088732
7.460,813320,7.666234,3.835511,5.645528,-0.244080,-0.146954,-0.103254
7.480,813340,8.039729,3.768473,5.544971,-0.241948,-0.120708,-0.066882
7.500,813360,8.556877,3.840300,5.564125,-0.217833,-0.127769,-0.001732
7.520,813380,9.059659,3.720589,5.516241,-0.181328,-0.141492,0.074077
7.540,813400,8.777143,3.653552,5.535394,-0.168271,-0.165074,0.148819
7.560,813420,8.231265,3.773262,5.712565,-0.161476,-0.185724,0.170536
7.580,813440,7.814674,3.816358,5.741296,-0.148286,-0.165740,0.126037
7.600,813460,7.613562,3.825934,5.731719,-0.130433,-0.136429,0.043167
7.620,813480,7.474698,3.706224,5.568913,-0.094994,-0.096459,-0.047031
7.640,813500,7.656657,3.562572,5.434838,-0.062219,-0.100856,-0.122040
7.660,813520,8.087613,3.390190,5.228937,-0.032642,-0.118576,-0.151750
7.680,813540,8.240842,3.438074,5.200206,-0.018386,-0.149885,-0.154415
7.700,813560,7.967903,3.495534,5.334281,-0.011325,-0.163741,-0.177730
7.720,813580,7.934384,3.605668,5.506664,-0.015188,-0.157479,-0.205976
7.740,813600,8.159439,3.792415,5.640739,-0.021850,-0.104187,-0.224495
7.760,813620,8.437167,3.974375,5.674258,-0.032508,-0.049828,-0.237285
7.780,813640,8.690952,3.969586,5.707777,-0.037971,-0.002798,-0.242081
7.800,813660,8.868123,3.998317,5.650316,-0.050628,0.035839,-0.224361
7.820,813680,8.935161,4.012682,5.602432,-0.056357,0.067015,-0.192652
7.840,813700,8.810662,4.017470,5.453991,-0.056757,0.086867,-0.157613
7.860,813720,8.734048,3.998317,5.315128,-0.035839,0.076608,-0.123505
7.880,813740,8.566454,3.897760,5.157111,-0.008527,0.066216,-0.091796
7.900,813760,8.346188,3.797204,5.109226,0.024381,0.049562,-0.054625
7.920,813780,8.264784,3.658340,5.023035,0.050095,0.047430,-0.016387
7.940,813800,8.236053,3.567361,4.936844,0.071279,0.013057,0.013856
7.960,813820,8.312668,3.624821,4.797980,0.093528,-0.034907,0.043034
7.980,813840,8.197746,3.667917,4.855441,0.124971,-0.072478,0.071145
8.000,813860,8.058883,3.677494,5.042189,0.148020,-0.081404,0.078473
8.020,813880,8.145074,3.711013,5.075707,0.157346,-0.057689,0.069147
8.040,813900,8.255207,3.711013,5.114015,0.151217,-0.023715,0.062619
8.060,813920,8.489840,3.792415,5.061342,0.157346,0.007594,0.067815
8.080,813940,8.643068,3.782839,4.970363,0.161876,0.032375,0.075809
8.100,813960,8.619126,3.711013,5.027823,0.160544,0.044766,0.076475
8.120,813980,8.671799,3.667917,5.080496,0.146421,0.056757,0.075809
8.140,814000,8.700529,3.543418,5.037400,0.124038,0.063951,0.092196
8.160,814020,8.781932,3.438074,4.879383,0.102988,0.054092,0.122440
8.180,814040,8.705317,3.409343,4.783615,0.079139,0.034374,0.159078
8.200,814060,8.528147,3.476381,4.821922,0.057689,0.008660,0.173201
8.220,814080,8.374918,3.485958,4.932055,0.041835,0.010392,0.170536
8.240,814100,8.106767,3.500323,4.960786,0.014522,0.042634,0.167072
8.260,814120,8.063671,3.600879,4.946421,-0.011191,0.069014,0.160544
8.280,814140,8.571242,3.840300,5.219360,-0.044233,0.058888,0.150018
8.300,814160,10.553641,4.036624,5.501875,-0.057289,-0.002798,0.143490
8.320,814180,10.462662,3.773262,5.037400,-0.119375,0.092995,0.245145
8.340,814200,8.671799,4.079720,5.228937,-0.187856,0.086334,0.291776
8.360,814220,9.011775,4.625597,5.372589,-0.129900,0.017187,0.172934
8.380,814240,9.308656,4.635174,5.386954,-0.092196,0.051028,0.061686
8.400,814260,9.117120,4.386178,5.501875,-0.071545,0.076874,0.028378
8.420,814280,8.911219,4.127604,5.372589,-0.075542,0.094994,0.030910
8.440,814300,8.719683,3.945644,5.133168,-0.088732,0.088998,0.047430
8.460,814320,8.307879,3.835511,4.932055,-0.100190,0.084469,0.065550
8.480,814340,7.680599,3.749320,4.750096,-0.098991,0.075276,0.070213
8.500,814360,7.378930,3.572149,4.534618,-0.080738,0.053159,0.073410
8.520,814380,7.584831,3.485958,4.343082,-0.060620,0.008926,0.087400
8.540,814400,7.896077,3.490746,4.429273,-0.041968,-0.014655,0.105919
8.560,814420,7.943961,3.509900,4.620809,-0.033308,0.003864,0.126703
8.580,814440,8.034941,3.715801,4.797980,-0.034907,0.032908,0.121507
8.600,814460,8.451532,4.074931,4.922479,-0.025181,0.055691,0.058888
8.620,814480,8.825027,4.472369,5.109226,-0.010259,0.088998,-0.041302
8.640,814500,8.877700,4.644751,5.434838,-0.001865,0.141225,-0.152150
8.660,814520,8.820239,4.501099,5.391742,-0.002665,0.210372,-0.229024
8.680,814540,8.552089,4.213795,5.262455,-0.025181,0.261933,-0.255271
8.700,814560,8.643068,3.873818,5.070919,-0.044233,0.266995,-0.227292
8.720,814580,8.796297,3.730166,4.960786,-0.070080,0.251141,-0.143357
8.740,814600,8.609550,3.639187,4.932055,-0.080472,0.225694,-0.048096
8.760,814620,8.485051,3.519476,4.759673,-0.070346,0.179063,0.041035
8.780,814640,8.542512,3.452439,4.601655,-0.051694,0.133631,0.125770
8.800,814660,8.528147,3.442862,4.548983,-0.029311,0.096060,0.177597
8.820,814680,8.322245,3.495534,4.654328,-0.004930,0.086734,0.188122
8.840,814700,8.322245,3.572149,4.778827,0.017320,0.093662,0.164008
8.860,814720,8.475474,3.620033,4.797980,0.040636,0.103920,0.121507
8.880,814740,8.604761,3.696647,4.778827,0.063818,0.103521,0.074476
8.900,814760,8.623915,3.711013,4.821922,0.089265,0.106718,0.031576
8.920,814780,8.667010,3.643975,4.893748,0.091397,0.103254,-0.000666
8.940,814800,8.748413,3.538630,4.841076,0.068747,0.080072,-0.012524
8.960,814820,8.882488,3.457227,4.716578,0.040103,0.035972,0.002931
8.980,814840,8.667010,3.505111,4.635174,0.010259,0.003064,0.035972
9.000,814860,8.293514,3.610456,4.735731,-0.003730,-0.020518,0.047164
9.020,814880,7.977480,3.677494,4.951209,-0.011191,0.003597,0.035706
9.040,814900,7.690176,3.701436,5.114015,-0.028778,0.064084,0.017587
9.060,814920,8.149862,4.022259,5.525817,-0.053692,0.088066,-0.029311
9.080,814940,10.146626,4.381389,5.698200,-0.055957,0.046764,-0.085135
9.100,814960,10.002975,4.098873,5.104438,-0.068081,0.111648,-0.023182
9.120,814980,8.427590,4.103662,5.597643,-0.095394,0.043167,0.027712
9.140,815000,8.628703,4.161122,5.698200,-0.049429,0.024248,-0.001199
9.160,815020,8.355764,4.151546,5.798757,-0.069413,0.037172,-0.015855
9.180,815040,8.700529,4.098873,5.971139,-0.063152,-0.005596,-0.035972
9.200,815060,8.695741,3.840300,5.822699,-0.092729,-0.033974,-0.034640
9.220,815080,8.877700,3.801992,5.870583,-0.127236,-0.097925,-0.004130
9.240,815100,8.968679,3.873818,5.918467,-0.159611,-0.124704,0.019185
9.260,815120,8.796297,3.979163,5.985504,-0.187856,-0.136828,0.015988
9.280,815140,8.676587,3.988740,5.990293,-0.201179,-0.117377,-0.015455
9.300,815160,8.446744,3.835511,5.870583,-0.214902,-0.084602,-0.045299
9.320,815180,8.212111,3.639187,5.693412,-0.228891,-0.070213,-0.066482
9.340,815200,7.862558,3.466804,5.578490,-0.244746,-0.060487,-0.080605
9.360,815220,7.738060,3.433285,5.487510,-0.254472,-0.066882,-0.093395
9.380,815240,7.747637,3.318364,5.449203,-0.255404,-0.085934,-0.112447
9.400,815260,7.948750,3.280056,5.401319,-0.262199,-0.096593,-0.115112
9.420,815280,7.915231,3.332729,5.382165,-0.263265,-0.098058,-0.109116
9.440,815300,8.044518,3.552995,5.482722,-0.233821,-0.084335,-0.105652
9.460,815320,8.192958,3.734955,5.573701,-0.186391,-0.049695,-0.118043
9.480,815340,8.413225,3.888184,5.650316,-0.139893,-0.018386,-0.151217
9.500,815360,8.422802,3.916914,5.722142,-0.107384,0.022250,-0.194518
9.520,815380,8.188169,3.806781,5.655105,-0.086600,0.053959,-0.236752
9.540,815400,8.221688,3.667917,5.602432,-0.079939,0.056090,-0.266063
9.560,815420,8.413225,3.567361,5.473145,-0.090597,0.050894,-0.261666
9.580,815440,8.346188,3.524265,5.401319,-0.113513,0.027312,-0.235819
9.600,815460,8.432379,3.356671,5.334281,-0.127103,-0.013323,-0.194651
9.620,815480,8.451532,3.342306,5.171476,-0.159611,-0.052626,-0.124305
9.640,815500,8.279149,3.509900,5.295974,-0.180928,-0.092462,-0.090864
9.660,815520,8.164227,3.586514,5.343858,-0.171735,-0.099657,-0.092596
9.680,815540,8.106767,3.643975,5.401319,-0.163475,-0.073277,-0.086867
9.700,815560,8.169016,3.725378,5.420473,-0.144556,-0.049962,-0.091930
9.720,815580,8.346188,3.768473,5.406107,-0.116844,-0.034640,-0.107784
9.740,815600,8.408437,3.691859,5.339070,-0.089798,-0.019718,-0.104853
9.760,815620,8.312668,3.615245,5.329493,-0.067015,-0.013590,-0.090864
9.780,815640,8.283937,3.667917,5.267244,-0.044100,-0.025047,-0.080738
9.800,815660,8.350976,3.581726,5.252879,-0.017986,-0.042234,-0.059821
9.820,815680,8.518570,3.476381,5.204995,-0.000133,-0.072078,-0.022516
9.840,815700,8.508993,3.414132,5.114015,0.004130,-0.103920,0.027712
9.860,815720,8.475474,3.452439,5.133168,0.004930,-0.135896,0.070879
9.880,815740,8.350976,3.552995,5.114015,0.011191,-0.151750,0.083536
9.900,815760,8.183381,3.624821,5.166687,0.012257,-0.151484,0.071545
9.920,815780,7.987057,3.600879,5.190629,0.004130,-0.125637,0.053292
9.940,815800,7.876924,3.624821,5.214571,-0.012124,-0.085268,0.038637
9.960,815820,8.571242,3.916914,5.477933,-0.032375,-0.099923,0.013057
9.980,815840,10.314221,4.295198,5.497087,-0.020917,-0.127902,0.010658
10.000,815860,9.979033,4.194642,5.181053,-0.042501,-0.073410,0.079806
10.020,815880,8.872911,4.333505,5.477933,-0.063285,-0.111914,0.116977
10.040,815900,9.294291,4.520253,5.444415,-0.052493,-0.111248,0.087000
10.060,815920,9.035717,4.505888,5.367800,-0.086600,-0.052626,0.076075
10.080,815940,8.829816,4.419696,5.353435,-0.089798,-0.031309,0.067548
10.100,815960,8.590396,4.304775,5.262455,-0.110848,0.005995,0.060221
10.120,815980,8.475474,4.218584,5.185841,-0.133498,0.027579,0.060487
10.140,816000,8.283937,4.098873,5.056554,-0.141492,0.054225,0.064484
10.160,816020,7.948750,3.950433,4.855441,-0.148153,0.061153,0.069946
10.180,816040,7.809886,3.811569,4.649539,-0.139893,0.043300,0.081937
10.200,816060,7.637504,3.696647,4.486734,-0.113380,0.017986,0.095926
10.220,816080,7.690176,3.576937,4.438850,-0.089398,-0.021983,0.112314
10.240,816100,7.905654,3.643975,4.501099,-0.071145,-0.042101,0.142025
10.260,816120,7.948750,3.782839,4.668694,-0.056357,-0.030377,0.149752
10.280,816140,8.140285,3.931279,4.826711,-0.041035,-0.016121,0.120441
10.300,816160,8.303091,4.137180,4.989516,-0.026113,0.020917,0.072478
10.320,816180,8.494628,4.362236,5.181053,-0.012524,0.078340,0.006928
10.340,816200,8.643068,4.472369,5.391742,-0.012790,0.124305,-0.076741
10.360,816220,8.781932,4.438850,5.348647,-0.011191,0.183992,-0.145489
10.380,816240,8.638280,4.204218,5.243302,-0.026913,0.236352,-0.170270
10.400,816260,8.609550,3.988740,5.118803,-0.051028,0.244479,-0.164674
10.420,816280,8.628703,3.816358,5.008670,-0.075809,0.238217,-0.125371
10.440,816300,8.590396,3.744531,4.912902,-0.093395,0.206642,-0.076608
10.460,816320,8.446744,3.687071,4.860229,-0.104986,0.167738,-0.040369
10.480,816340,8.283937,3.620033,4.845864,-0.107251,0.137361,-0.014922
10.500,816360,8.231265,3.648763,4.802769,-0.108583,0.105386,-0.005329
10.520,816380,8.355764,3.696647,4.821922,-0.102855,0.074077,-0.021983
10.540,816400,8.255207,3.725378,4.874595,-0.098724,0.062219,-0.042767
10.560,816420,8.350976,3.773262,4.984728,-0.098991,0.056357,-0.062885
10.580,816440,8.441956,3.845088,5.042189,-0.104986,0.064484,-0.083936
10.600,816460,8.504205,3.869030,5.023035,-0.110982,0.066216,-0.099790
10.620,816480,8.437167,3.816358,4.979939,-0.126969,0.065150,-0.104054
10.640,816500,8.331821,3.787627,5.008670,-0.147087,0.050228,-0.102721
10.660,816520,8.441956,3.806781,5.032612,-0.167472,0.024248,-0.093395
10.680,816540,8.681376,3.773262,4.922479,-0.190121,-0.011858,-0.063418
10.700,816560,8.734048,3.648763,4.726154,-0.194651,-0.064750,0.000266
10.720,816580,8.619126,3.648763,4.630386,-0.183326,-0.125504,0.075809
10.740,816600,8.355764,3.763685,4.697424,-0.157080,-0.162276,0.125104
10.760,816620,8.101978,3.845088,4.831499,-0.131366,-0.163874,0.150551
10.780,816640,7.766790,3.892972,5.027823,-0.115911,-0.132165,0.148286
10.800,816660,8.336611,4.204218,5.468357,-0.119242,-0.131100,0.111914
10.820,816680,9.749189,4.601655,5.717354,-0.115911,-0.106985,0.072078
10.840,816700,9.112331,4.185065,5.564125,-0.174266,0.002398,0.080472
10.860,816720,8.978256,3.950433,5.334281,-0.206642,-0.064484,0.124172
10.880,816740,9.581595,3.878607,5.037400,-0.193718,-0.140159,0.191453
10.900,816760,9.605537,3.955221,5.142745,-0.179063,-0.211305,0.251274
10.920,816780,9.150639,3.902549,5.339070,-0.149885,-0.238084,0.283649
10.940,816800,8.738836,3.696647,5.449203,-0.147487,-0.234087,0.283516
10.960,816820,9.078813,3.653552,5.468357,-0.159744,-0.235286,0.256337
10.980,816840,9.275137,3.557784,5.439626,-0.182127,-0.212904,0.230090
11.000,816860,9.160215,3.481169,5.525817,-0.207308,-0.193851,0.203311
11.020,816880,9.069236,3.418920,5.602432,-0.223962,-0.160810,0.160277
11.040,816900,8.834604,3.246537,5.449203,-0.232489,-0.117243,0.113513
11.060,816920,8.695741,3.136404,5.243302,-0.229424,-0.112314,0.069946
11.080,816940,8.604761,2.968810,5.003881,-0.206775,-0.132565,0.023182
11.100,816960,8.432379,2.858677,4.841076,-0.189188,-0.175599,-0.010792
11.120,816980,8.461109,2.695871,4.812346,-0.178796,-0.233155,-0.031176
11.140,817000,8.628703,2.671929,4.807557,-0.185191,-0.276188,-0.029977
11.160,817020,8.604761,2.686294,4.869806,-0.203444,-0.291510,-0.025980
11.180,817040,8.647857,2.815581,4.979939,-0.233821,-0.290178,-0.024115
11.200,817060,8.877700,2.997540,5.137957,-0.257270,-0.263132,-0.036772
11.220,817080,8.863335,3.193865,5.243302,-0.279519,-0.207041,-0.068614
11.240,817100,8.868123,3.409343,5.353435,-0.280052,-0.139093,-0.128035
11.260,817120,8.801085,3.514688,5.372589,-0.268194,-0.049162,-0.203977
11.280,817140,8.523358,3.481169,5.252879,-0.249942,0.042900,-0.278587
11.300,817160,8.480263,3.371036,5.070919,-0.223029,0.106052,-0.329747
11.320,817180,8.576031,3.284845,4.898537,-0.182660,0.136029,-0.344270
11.340,817200,8.614338,3.232172,4.912902,-0.147887,0.150418,-0.336276
11.360,817220,8.499416,3.126827,4.908113,-0.125504,0.158279,-0.310828
11.380,817240,8.456321,3.040636,4.855441,-0.111115,0.155747,-0.274989
11.400,817260,8.480263,3.083732,4.869806,-0.100057,0.136962,-0.244080
11.420,817280,8.552089,3.093309,4.917690,-0.075276,0.122440,-0.222363
11.440,817300,8.552089,3.169923,4.975151,-0.059021,0.113913,-0.211571
11.460,817320,8.475474,3.227384,5.066131,-0.047297,0.111515,-0.221963
11.480,817340,8.748413,3.246537,5.023035,-0.036106,0.104587,-0.228092
11.500,817360,8.810662,3.280056,4.951209,-0.039436,0.096326,-0.217433
11.520,817380,8.652645,3.299210,4.932055,-0.032775,0.079273,-0.211438
11.540,817400,8.461109,3.342306,4.960786,-0.029844,0.067948,-0.203844
11.560,817420,8.470686,3.299210,4.975151,-0.030910,0.059155,-0.189455
11.580,817440,8.489840,3.193865,4.841076,-0.037438,0.043833,-0.158145
11.600,817460,8.580819,3.155558,4.711789,-0.038904,0.007594,-0.107784
11.620,817480,8.556877,3.179500,4.635174,-0.035972,-0.035306,-0.043966
11.640,817500,8.394072,3.275268,4.697424,-0.027579,-0.065949,0.000799
11.660,817520,8.226477,3.399766,4.836287,-0.014256,-0.066216,0.018652
11.680,817540,8.121132,3.533842,5.008670,-0.004930,-0.038770,0.023582
11.700,817560,8.216900,3.749320,5.181053,0.000400,0.004130,0.007194
11.720,817580,8.250419,4.007894,5.396531,0.004397,0.061953,-0.012790
11.740,817600,9.504981,4.491522,5.985504,0.013989,0.053026,-0.051560
11.760,817620,10.280702,4.333505,5.717354,0.018253,0.135363,-0.048496
11.780,817640,9.117120,3.916914,5.444415,-0.044233,0.140559,0.009726
11.800,817660,10.146626,4.247314,5.339070,-0.023182,0.035440,0.044632
11.820,817680,9.634268,4.074931,5.099649,-0.034507,0.038770,0.082603
11.840,817700,9.236830,4.079720,5.343858,-0.024381,-0.001998,0.117110
11.860,817720,8.925584,3.797204,5.094861,-0.020118,-0.007727,0.131899
11.880,817740,8.863335,3.720589,5.027823,-0.033441,-0.058222,0.164274
11.900,817760,8.896853,3.787627,4.994305,-0.033175,-0.090597,0.172801
11.920,817780,8.738836,3.806781,4.970363,-0.028378,-0.101123,0.171335
11.940,817800,8.413225,3.773262,4.903325,-0.022250,-0.101256,0.154149
11.960,817820,8.231265,3.744531,4.730943,-0.006662,-0.096593,0.132565
11.980,817840,8.044518,3.643975,4.563348,0.008793,-0.077407,0.117910
12.000,817860,7.891289,3.567361,4.458004,0.019851,-0.048896,0.115645
12.020,817880,7.809886,3.509900,4.539406,0.024781,-0.014389,0.112980
12.040,817900,7.790732,3.327940,4.453215,0.018386,0.028112,0.126303
12.060,817920,8.058883,3.423708,4.410120,0.010792,0.037571,0.141225
12.080,817940,8.513782,3.524265,4.434062,0.020651,0.030110,0.149885
12.100,817960,8.906430,3.610456,4.539406,0.027845,0.031709,0.166139
12.120,817980,8.997410,3.816358,4.797980,0.025580,0.052760,0.172401
12.140,818000,9.184157,4.017470,4.984728,0.035040,0.077940,0.125637
12.160,818020,9.251195,4.074931,5.051765,0.045832,0.113380,0.061953
12.180,818040,9.222465,4.089296,5.046977,0.056890,0.169337,0.015455
12.200,818060,9.126697,4.122815,5.042189,0.078340,0.217034,-0.038637
12.220,818080,9.069236,4.036624,4.908113,0.102188,0.261933,-0.092729
12.240,818100,8.676587,3.768473,4.841076,0.107384,0.293642,-0.132165
12.260,818120,8.485051,3.572149,4.764462,0.100856,0.292176,-0.152417
12.280,818140,8.451532,3.385401,4.678270,0.077541,0.282184,-0.138827
12.300,818160,8.528147,3.289633,4.544195,0.048363,0.251274,-0.093129
12.320,818180,8.686164,3.303998,4.568137,0.024115,0.197982,-0.042900
12.340,818200,8.705317,3.332729,4.481946,0.003331,0.151617,0.001466
12.360,818220,8.528147,3.394978,4.539406,-0.017453,0.116044,0.033708
12.380,818240,8.494628,3.529053,4.673482,-0.026513,0.085268,0.029977
12.400,818260,8.451532,3.567361,4.716578,-0.033708,0.075276,-0.001066
12.420,818280,8.475474,3.624821,4.769250,-0.042634,0.072211,-0.042634
12.440,818300,8.489840,3.677494,4.788404,-0.053825,0.077274,-0.095926
12.460,818320,8.470686,3.711013,4.850653,-0.071945,0.077940,-0.147087
12.480,818340,8.504205,3.672705,4.836287,-0.098724,0.080072,-0.180129
12.500,818360,8.446744,3.682282,4.821922,-0.126836,0.075542,-0.197982
12.520,818380,8.355764,3.672705,4.716578,-0.152017,0.065417,-0.197315
12.540,818400,8.408437,3.663129,4.639963,-0.166406,0.036106,-0.174000
12.560,818420,8.389283,3.643975,4.481946,-0.165606,-0.002798,-0.131100
12.580,818440,8.370130,3.691859,4.539406,-0.161210,-0.035839,-0.077008
12.600,818460,8.192958,3.782839,4.668694,-0.150951,-0.052760,-0.037172
12.620,818480,8.145074,3.940856,4.888960,-0.140292,-0.056357,-0.022116
12.640,818500,8.652645,4.266468,5.391742,-0.145888,-0.065017,-0.034107
12.660,818520,9.825804,4.678270,5.688623,-0.148953,-0.068614,-0.047031
12.680,818540,9.916783,4.438850,5.430049,-0.152150,-0.010259,-0.013723
12.700,818560,9.375694,4.347870,5.358223,-0.148553,-0.051827,0.060221
12.720,818580,9.485827,4.438850,5.363012,-0.098724,-0.087666,0.089398
12.740,818600,9.299079,4.477157,5.568913,-0.077940,-0.107784,0.077141
12.760,818620,9.145850,4.194642,5.659893,-0.064484,-0.117377,0.052093
12.780,818640,8.882488,3.869030,5.554548,-0.105919,-0.122173,0.048896
12.800,818660,9.045294,3.797204,5.530606,-0.155881,-0.145888,0.055691
12.820,818680,9.093178,3.734955,5.401319,-0.201579,-0.158412,0.057956
12.840,818700,8.738836,3.749320,5.358223,-0.244746,-0.173600,0.046364
12.860,818720,8.365341,3.687071,5.243302,-0.268061,-0.179729,0.011191
12.880,818740,7.852982,3.457227,4.979939,-0.280718,-0.181194,-0.020251
12.900,818760,7.565677,3.351882,4.850653,-0.272458,-0.205043,-0.043300
12.920,818780,7.599196,3.332729,4.745308,-0.251940,-0.225028,-0.075142
12.940,818800,7.728483,3.208230,4.797980,-0.236485,-0.244613,-0.103920
12.960,818820,8.049306,3.165135,4.793192,-0.230890,-0.247943,-0.099790
12.980,818840,8.192958,3.260903,4.841076,-0.231156,-0.214902,-0.080871
13.000,818860,8.317456,3.533842,4.979939,-0.219299,-0.180662,-0.083403
13.020,818880,8.671799,3.754108,5.137957,-0.190387,-0.153349,-0.117776
13.040,818900,8.820239,3.883395,5.238513,-0.168538,-0.082737,-0.138560
13.060,818920,8.743625,4.041412,5.487510,-0.152949,-0.007328,-0.167072
13.080,818940,8.734048,4.209007,5.631162,-0.138294,0.084735,-0.223162
13.100,818960,8.580819,4.146757,5.655105,-0.129234,0.174133,-0.281784
13.120,818980,8.528147,3.993528,5.530606,-0.134564,0.219165,-0.323752
13.140,819000,8.743625,3.840300,5.305551,-0.141891,0.214236,-0.336009
13.160,819020,8.834604,3.720589,5.181053,-0.144556,0.172534,-0.302035
13.180,819040,8.901642,3.562572,5.166687,-0.146021,0.110582,-0.245678
13.200,819060,8.757990,3.428497,5.070919,-0.155214,0.053159,-0.170536
13.220,819080,8.571242,3.447650,4.960786,-0.148686,-0.010126,-0.102322
13.240,819100,8.360553,3.457227,4.893748,-0.125371,-0.054092,-0.064617
13.260,819120,8.207323,3.428497,4.951209,-0.101655,-0.075675,-0.051827
13.280,819140,8.346188,3.433285,4.979939,-0.084469,-0.079139,-0.050628
13.300,819160,8.370130,3.438074,5.018247,-0.082204,-0.070346,-0.049296
13.320,819180,8.350976,3.433285,4.984728,-0.081005,-0.054758,-0.048096
13.340,819200,8.226477,3.490746,4.888960,-0.078873,-0.031176,-0.043700
13.360,819220,8.221688,3.629610,4.922479,-0.055158,-0.019851,-0.061553
13.380,819240,8.236053,3.538630,4.922479,-0.027845,-0.001732,-0.078340
13.400,819260,8.188169,3.452439,4.855441,-0.019052,0.010925,-0.059288
13.420,819280,8.370130,3.433285,4.821922,-0.012391,0.008527,-0.027312
13.440,819300,8.298303,3.433285,4.730943,-0.004930,-0.003064,0.005995
13.460,819320,8.188169,3.447650,4.663905,0.012391,-0.016654,0.043966
13.480,819340,8.058883,3.495534,4.707001,0.032775,-0.024914,0.068747
13.500,819360,8.264784,3.639187,4.831499,0.046764,-0.024515,0.068614
13.520,819380,8.552089,3.845088,5.023035,0.056357,-0.005596,0.064484
13.540,819400,10.156203,4.367024,5.396531,0.088865,-0.047031,0.061286
13.560,819420,10.907983,4.558560,5.209783,0.118576,0.028245,0.107784
13.580,819440,9.370906,4.333505,5.358223,0.094461,0.082070,0.157080
13.600,819460,8.968679,4.386178,5.324705,0.098058,0.076342,0.096859
13.620,819480,8.757990,4.247314,5.161899,0.079939,0.101655,0.021717
13.640,819500,8.638280,4.290410,5.329493,0.077141,0.116977,-0.004663
13.660,819520,8.494628,4.237737,5.324705,0.063152,0.154415,-0.017720
13.680,819540,8.331821,4.156334,5.324705,0.038637,0.161210,-0.016254
13.700,819560,8.576031,4.185065,5.190629,0.020651,0.147354,0.009859
13.720,819580,8.427590,4.194642,5.051765,0.006795,0.143890,0.059288
13.740,819600,8.068460,4.290410,4.970363,0.005063,0.131366,0.091397
13.760,819620,7.718906,4.237737,4.860229,0.018519,0.127902,0.101389
13.780,819640,7.489063,4.070143,4.687847,0.031576,0.119775,0.121507
13.800,819660,7.532158,3.873818,4.563348,0.044233,0.099257,0.156946
13.820,819680,7.714118,3.845088,4.410120,0.059421,0.074210,0.200913
13.840,819700,7.943961,4.017470,4.606444,0.083403,0.055025,0.213303
13.860,819720,8.173804,4.141969,4.754885,0.109783,0.064217,0.190654
13.880,819740,8.427590,4.352659,4.936844,0.123905,0.081937,0.142691
13.900,819760,8.590396,4.592079,5.147533,0.132565,0.118309,0.065550
13.920,819780,8.643068,4.735731,5.315128,0.133098,0.164141,-0.029844
13.940,819800,8.724471,4.793192,5.449203,0.127502,0.217966,-0.111781
13.960,819820,8.834604,4.754885,5.420473,0.110715,0.263931,-0.158678
13.980,819840,8.652645,4.481946,5.252879,0.080072,0.297905,-0.162942
14.000,819860,8.413225,4.218584,5.070919,0.046364,0.297239,-0.119242
14.020,819880,8.394072,4.122815,4.888960,0.023449,0.254871,-0.067282
14.040,819900,8.389283,4.074931,4.793192,0.012124,0.198381,-0.017187
14.060,819920,8.312668,4.022259,4.812346,0.004263,0.148953,0.038637
14.080,819940,8.303091,3.936068,4.697424,0.003198,0.107518,0.086334
14.100,819960,8.164227,3.936068,4.644751,0.003730,0.071145,0.099790
14.120,819980,8.259995,4.003105,4.730943,0.012124,0.034640,0.077274
14.140,820000,8.327033,3.897760,4.793192,0.005329,0.021051,0.046231
14.160,820020,8.350976,3.845088,4.821922,-0.019185,0.007727,0.014522
14.180,820040,8.456321,3.830723,4.769250,-0.051827,-0.003730,-0.016387
14.200,820060,8.465898,3.840300,4.769250,-0.091263,-0.011191,-0.048096
14.220,820080,8.394072,3.859453,4.821922,-0.132965,-0.018786,-0.083536
14.240,820100,8.355764,3.835511,4.807557,-0.173467,-0.014522,-0.109383
14.260,820120,8.403648,3.869030,4.726154,-0.214769,-0.016254,-0.126303
14.280,820140,8.513782,3.902549,4.683059,-0.241548,-0.023982,-0.149485
14.300,820160,8.446744,3.821146,4.592079,-0.261933,-0.043034,-0.138827
14.320,820180,8.384495,3.835511,4.577713,-0.274323,-0.064884,-0.111248
14.340,820200,8.164227,3.955221,4.534618,-0.261666,-0.085801,-0.101389
14.360,820220,8.092402,3.979163,4.563348,-0.238617,-0.101922,-0.102322
14.380,820240,7.809886,3.921702,4.630386,-0.224761,-0.111648,-0.098191
14.400,820260,8.293514,4.204218,5.133168,-0.240616,-0.149352,-0.115778
14.420,820280,10.184934,4.802769,5.434838,-0.244080,-0.205576,-0.142424
14.440,820300,9.983821,4.548983,5.032612,-0.259801,-0.130034,-0.088066
14.460,820320,8.700529,4.572925,5.248090,-0.277387,-0.173067,-0.025980
14.480,820340,9.145850,4.812346,5.377377,-0.228225,-0.184126,-0.052760
14.500,820360,8.978256,4.730943,5.473145,-0.216101,-0.143757,-0.069946
14.520,820380,8.786720,4.563348,5.578490,-0.209972,-0.133764,-0.068747
14.540,820400,8.757990,4.347870,5.501875,-0.231289,-0.128302,-0.059954
14.560,820420,8.753201,4.256891,5.420473,-0.253939,-0.125237,-0.024648
14.580,820440,8.662222,4.209007,5.420473,-0.257802,-0.128168,0.006928
14.600,820460,8.360553,4.185065,5.343858,-0.261933,-0.118309,0.024248
14.620,820480,7.939173,3.988740,5.200206,-0.256470,-0.110182,0.026247
14.640,820500,7.532158,3.715801,4.979939,-0.252340,-0.116977,0.032908
14.660,820520,7.570466,3.586514,4.869806,-0.239949,-0.155081,0.034640
14.680,820540,7.891289,3.615245,4.946421,-0.231156,-0.182394,0.023582
14.700,820560,8.058883,3.672705,5.061342,-0.223296,-0.176931,-0.009193
14.720,820580,7.967903,3.596091,5.200206,-0.230490,-0.152816,-0.051294
14.740,820600,8.212111,3.744531,5.358223,-0.245145,-0.102455,-0.089931
14.760,820620,8.485051,3.955221,5.511452,-0.266995,-0.032109,-0.143623
14.780,820640,8.528147,4.132392,5.612009,-0.281518,0.042101,-0.213836
14.800,820660,8.355764,4.161122,5.640739,-0.294308,0.118309,-0.277121
14.820,820680,8.298303,4.175488,5.525817,-0.291243,0.167871,-0.315891
14.840,820700,8.379706,4.113238,5.377377,-0.266462,0.181328,-0.326949
14.860,820720,8.413225,4.036624,5.286397,-0.232622,0.161343,-0.293642
14.880,820740,8.413225,3.955221,5.204995,-0.202378,0.116311,-0.234087
14.900,820760,8.283937,3.854665,5.176264,-0.171602,0.065150,-0.176665
14.920,820780,8.197746,3.797204,5.161899,-0.142025,0.015055,-0.124838
14.940,820800,8.092402,3.744531,5.157111,-0.120441,-0.011458,-0.084469
14.960,820820,8.078036,3.744531,5.181053,-0.104720,-0.028778,-0.073810
14.980,820840,8.140285,3.701436,5.224148,-0.098058,-0.024248,-0.073144
15.000,820860,8.188169,3.667917,5.262455,-0.105786,-0.003464,-0.070746
15.020,820880,8.140285,3.667917,5.276821,-0.116311,0.021850,-0.079672
15.040,820900,8.135497,3.797204,5.224148,-0.117643,0.036106,-0.102322
15.060,820920,8.240842,3.811569,5.195418,-0.100989,0.044499,-0.123772
15.080,820940,8.274361,3.682282,5.181053,-0.091930,0.043700,-0.118043
15.100,820960,8.350976,3.572149,5.152322,-0.098458,0.028378,-0.077807
15.120,820980,8.398860,3.581726,5.042189,-0.109383,-0.000666,-0.028245
15.140,821000,8.317456,3.620033,4.984728,-0.104187,-0.036772,0.010658
15.160,821020,8.197746,3.663129,5.042189,-0.088865,-0.066882,0.033974
15.180,821040,8.106767,3.658340,5.056554,-0.078340,-0.072478,0.047564
15.200,821060,8.006210,3.696647,5.109226,-0.073544,-0.079006,0.058888
15.220,821080,8.034941,3.706224,5.171476,-0.070746,-0.069946,0.067282
15.240,821100,7.934384,3.811569,5.171476,-0.077008,-0.054891,0.078606
15.260,821120,7.967903,4.017470,5.272032,-0.065017,-0.044499,0.091930
15.280,821140,8.652645,4.486734,5.846641,-0.057156,-0.071412,0.090064
15.300,821160,10.994174,4.999093,6.162675,-0.004130,-0.114979,0.083403
15.320,821180,10.366894,4.472369,5.319916,-0.020118,-0.011325,0.216767
15.340,821200,9.734824,4.625597,5.664681,-0.019185,-0.128168,0.307498
15.360,821220,9.260772,4.620809,5.659893,-0.010126,-0.094994,0.281651
15.380,821240,8.394072,4.596867,5.813122,-0.008394,-0.021051,0.232355
15.400,821260,8.006210,4.563348,5.770026,0.010658,0.054092,0.144023
15.420,821280,7.795521,4.299986,5.540183,0.000799,0.111248,0.046897
15.440,821300,8.025364,4.098873,5.372589,-0.014389,0.092729,-0.007328
15.460,821320,8.298303,3.845088,5.023035,-0.046098,0.068081,0.016920
15.480,821340,7.977480,3.720589,4.750096,-0.082603,0.016654,0.088466
15.500,821360,7.546524,3.720589,4.606444,-0.082070,-0.015455,0.146421
15.520,821380,7.125144,3.653552,4.563348,-0.067015,-0.031443,0.173867
15.540,821400,7.383718,3.715801,4.592079,-0.029178,-0.045832,0.182660
15.560,821420,7.771579,3.888184,4.726154,0.002132,-0.026646,0.191587
15.580,821440,8.092402,4.074931,4.984728,0.025181,-0.006662,0.177331
15.600,821460,8.446744,4.261679,5.066131,0.047430,0.021317,0.136828
15.620,821480,8.585608,4.424485,5.248090,0.061686,0.060487,0.076208
15.640,821500,8.614338,4.548983,5.530606,0.077674,0.119908,-0.003331
15.660,821520,8.513782,4.601655,5.712565,0.074609,0.204510,-0.088066
15.680,821540,8.413225,4.539406,5.765238,0.056357,0.295240,-0.165606
15.700,821560,8.283937,4.343082,5.588067,0.022916,0.359325,-0.211438
15.720,821580,8.288726,4.137180,5.353435,-0.007461,0.359058,-0.207441
15.740,821600,8.408437,3.988740,5.123591,-0.021583,0.325084,-0.143623
15.760,821620,8.374918,3.821146,5.023035,-0.026913,0.267928,-0.052360
15.780,821640,8.374918,3.811569,4.850653,-0.023982,0.194118,0.033841
15.800,821660,8.188169,3.778050,4.865018,-0.008660,0.134564,0.081271
15.820,821680,8.054094,3.739743,4.965574,-0.002665,0.085934,0.087933
15.840,821700,8.082825,3.696647,4.955997,-0.013190,0.058222,0.066216
15.860,821720,8.049306,3.739743,5.037400,-0.029577,0.046098,0.033708
15.880,821740,8.169016,3.854665,5.152322,-0.047031,0.042101,-0.019185
15.900,821760,8.327033,3.897760,5.137957,-0.064084,0.059421,-0.070080
15.920,821780,8.346188,3.907337,5.190629,-0.095127,0.059021,-0.109383
15.940,821800,8.480263,3.902549,5.214571,-0.122972,0.059688,-0.141492
15.960,821820,8.384495,3.883395,5.176264,-0.161476,0.061153,-0.147887
15.980,821840,8.374918,4.031836,5.200206,-0.182127,0.050894,-0.150685
16.000,821860,8.489840,4.012682,5.137957,-0.179462,0.030377,-0.156014
16.020,821880,8.374918,3.921702,5.051765,-0.179063,-0.002265,-0.125904
16.040,821900,8.556877,3.892972,4.970363,-0.169737,-0.056623,-0.074077
16.060,821920,8.518570,3.816358,4.898537,-0.169603,-0.104187,-0.023449
16.080,821940,8.365341,3.912126,4.932055,-0.168271,-0.140426,0.019585
16.100,821960,8.221688,3.902549,4.994305,-0.164674,-0.141891,0.045165
16.120,821980,8.121132,3.921702,5.109226,-0.170136,-0.130833,0.048096
16.140,822000,8.159439,4.003105,5.219360,-0.180395,-0.116711,0.036772
16.160,822020,9.165004,4.438850,5.616797,-0.209972,-0.135363,0.005862
16.180,822040,9.720459,4.477157,5.530606,-0.216234,-0.083136,-0.004530
16.200,822060,8.451532,4.017470,5.214571,-0.261666,-0.050361,0.057156
16.220,822080,9.069236,4.103662,5.094861,-0.229824,-0.154415,0.114179
16.240,822100,9.026140,4.074931,5.032612,-0.203178,-0.173067,0.142025
16.260,822120,8.623915,4.113238,5.406107,-0.174000,-0.214103,0.137095
16.280,822140,8.389283,3.907337,5.386954,-0.166672,-0.195983,0.124571
16.300,822160,8.350976,3.825934,5.410896,-0.191986,-0.210639,0.115112
16.320,822180,9.097966,3.998317,5.497087,-0.203178,-0.240882,0.094594
16.340,822200,9.217676,4.012682,5.497087,-0.217700,-0.230623,0.089931
16.360,822220,9.088389,4.003105,5.568913,-0.227559,-0.239417,0.072877
16.380,822240,8.983045,3.936068,5.549759,-0.226493,-0.222896,0.032908
16.400,822260,8.599973,3.763685,5.497087,-0.225161,-0.194917,-0.014522
16.420,822280,8.173804,3.519476,5.315128,-0.222896,-0.178530,-0.063018
16.440,822300,8.001422,3.270479,5.046977,-0.226093,-0.177730,-0.092596
16.460,822320,8.135497,3.088520,4.941632,-0.236752,-0.210772,-0.090730
16.480,822340,8.264784,3.031059,4.922479,-0.255138,-0.234753,-0.064750
16.500,822360,8.274361,3.236961,5.056554,-0.272858,-0.234620,-0.053559
16.520,822380,8.125920,3.351882,5.267244,-0.281384,-0.201179,-0.075809
16.540,822400,8.446744,3.414132,5.329493,-0.286447,-0.156413,-0.106319
16.560,822420,8.614338,3.629610,5.487510,-0.290844,-0.088066,-0.137628
16.580,822440,8.518570,3.897760,5.659893,-0.278054,-0.008260,-0.196783
16.600,822460,8.346188,3.974375,5.693412,-0.260467,0.085135,-0.284049
16.620,822480,8.322245,3.902549,5.544971,-0.237418,0.153749,-0.346002
16.640,822500,8.537724,3.821146,5.372589,-0.214103,0.177997,-0.373714
16.660,822520,8.743625,3.696647,5.157111,-0.182926,0.152683,-0.360923
16.680,822540,8.580819,3.524265,5.080496,-0.159211,0.112447,-0.298838
16.700,822560,8.350976,3.490746,5.157111,-0.141625,0.076608,-0.225161
16.720,822580,8.384495,3.596091,5.147533,-0.115778,0.052893,-0.186391
16.740,822600,8.303091,3.576937,5.133168,-0.092462,0.036372,-0.163874
16.760,822620,8.365341,3.481169,5.051765,-0.072078,0.031975,-0.132965
16.780,822640,8.389283,3.476381,5.013458,-0.064217,0.035440,-0.097392
16.800,822660,8.437167,3.524265,5.018247,-0.050495,0.041835,-0.071412
16.820,822680,8.494628,3.557784,5.027823,-0.033041,0.053426,-0.053959
16.840,822700,8.403648,3.552995,5.018247,-0.013323,0.065417,-0.046231
16.860,822720,8.446744,3.481169,4.960786,0.003864,0.056224,-0.040502
16.880,822740,8.422802,3.442862,4.999093,0.008926,0.054758,-0.030910
16.900,822760,8.331821,3.414132,4.994305,0.010259,0.035706,-0.033308
16.920,822780,8.216900,3.342306,4.960786,0.003198,0.016254,-0.033441
16.940,822800,8.245630,3.385401,5.003881,-0.014123,-0.007994,-0.023982
16.960,822820,8.236053,3.399766,5.018247,-0.035706,-0.022916,-0.024781
16.980,822840,8.240842,3.433285,4.941632,-0.057156,-0.049562,-0.025047
17.000,822860,8.432379,3.481169,4.955997,-0.077274,-0.078074,-0.007727
17.020,822880,8.465898,3.524265,4.893748,-0.088332,-0.104453,0.021184
17.040,822900,8.365341,3.581726,4.912902,-0.092729,-0.132432,0.053825
17.060,822920,8.370130,3.715801,5.013458,-0.094994,-0.146954,0.074476
17.080,822940,9.509769,4.271256,5.559336,-0.097392,-0.196383,0.067681
17.100,822960,10.467450,4.367024,5.650316,-0.081005,-0.133364,0.080472
17.120,822980,9.591172,4.376601,5.540183,-0.104720,-0.068747,0.132165
17.140,823000,9.883265,4.625597,5.592855,-0.066482,-0.079006,0.091930
17.160,823020,9.361329,4.577713,5.535394,-0.063285,-0.023848,0.034374
17.180,823040,8.868123,4.496311,5.549759,-0.047031,0.011724,-0.020917
17.200,823060,8.513782,4.247314,5.291186,-0.049562,0.043833,-0.069280
17.220,823080,8.317456,4.050989,5.051765,-0.060087,0.035173,-0.085268
17.240,823100,8.034941,3.936068,4.932055,-0.072744,0.019985,-0.064617
17.260,823120,7.627927,3.801992,4.874595,-0.088066,0.010259,-0.019319
17.280,823140,7.474698,3.758897,4.778827,-0.098191,0.003464,0.039436
17.300,823160,7.651869,3.945644,4.754885,-0.095260,-0.015055,0.078340
17.320,823180,7.809886,3.979163,4.750096,-0.069680,-0.013723,0.103121
17.340,823200,7.738060,3.883395,4.821922,-0.058222,0.010792,0.139093
17.360,823220,8.039729,3.974375,4.927267,-0.039170,0.032642,0.150152
17.380,823240,8.269572,4.084508,5.037400,-0.031309,0.062619,0.120308
17.400,823260,8.370130,4.252102,5.166687,-0.015988,0.103121,0.074743
17.420,823280,8.379706,4.386178,5.286397,0.008394,0.162809,0.013456
17.440,823300,8.145074,4.486734,5.463568,0.030510,0.236352,-0.070080
17.460,823320,7.939173,4.501099,5.612009,0.047297,0.327482,-0.156413
17.480,823340,7.967903,4.491522,5.722142,0.046364,0.402358,-0.232222
17.500,823360,8.159439,4.252102,5.602432,0.027446,0.451521,-0.267662
17.520,823380,8.513782,4.055778,5.315128,-0.002132,0.427273,-0.218899
17.540,823400,8.394072,4.027047,5.185841,-0.025314,0.371582,-0.116711
17.560,823420,8.240842,3.988740,5.233725,-0.027845,0.298571,-0.043833
17.580,823440,8.197746,3.878607,5.257667,-0.037172,0.236619,0.005596
17.600,823460,8.307879,3.825934,5.161899,-0.049296,0.189188,0.051560
17.620,823480,8.178593,3.825934,5.166687,-0.056090,0.149885,0.064217
17.640,823500,8.044518,3.859453,5.219360,-0.056090,0.129501,0.042767
17.660,823520,7.900866,3.869030,5.300763,-0.061553,0.132299,0.005995
17.680,823540,7.953538,3.916914,5.358223,-0.073011,0.129634,-0.038104
17.700,823560,8.116343,3.926491,5.334281,-0.092329,0.115112,-0.077008
17.720,823580,8.279149,3.983952,5.257667,-0.102188,0.086734,-0.093662
17.740,823600,8.288726,4.007894,5.248090,-0.111115,0.053959,-0.089531
17.760,823620,8.355764,4.027047,5.166687,-0.114446,0.013723,-0.064084
17.780,823640,8.298303,4.022259,5.109226,-0.116844,-0.020118,-0.021583
17.800,823660,8.259995,4.022259,5.075707,-0.111648,-0.060753,0.020518
17.820,823680,8.164227,3.993528,5.008670,-0.106851,-0.093928,0.060354
17.840,823700,8.101978,3.969586,4.946421,-0.094727,-0.128835,0.100856
17.860,823720,7.824251,3.969586,4.927267,-0.083669,-0.135096,0.132698
17.880,823740,7.560889,3.950433,5.042189,-0.071545,-0.140026,0.147221
17.900,823760,7.757214,4.012682,5.128380,-0.068481,-0.149352,0.156813
17.920,823780,8.748413,4.386178,5.487510,-0.066216,-0.217700,0.144556
17.940,823800,10.275913,4.802769,5.904101,-0.054092,-0.289245,0.117510
17.960,823820,10.031705,4.319140,5.588067,-0.057289,-0.237285,0.174533
17.980,823840,9.667787,4.424485,5.755661,-0.067681,-0.297505,0.235553
18.000,823860,9.471462,4.434062,5.659893,-0.054758,-0.303634,0.200646
18.020,823880,9.198523,4.161122,5.655105,-0.057689,-0.306698,0.159478
18.040,823900,9.088389,3.883395,5.659893,-0.086467,-0.293775,0.152683
18.060,823920,8.968679,3.701436,5.487510,-0.132299,-0.260600,0.167338
18.080,823940,8.714894,3.586514,5.372589,-0.168404,-0.219165,0.181861
18.100,823960,8.360553,3.581726,5.233725,-0.182926,-0.168138,0.179462
18.120,823980,7.838616,3.385401,5.204995,-0.182127,-0.101389,0.140692
18.140,824000,7.436390,3.299210,5.090073,-0.183060,-0.051294,0.085135
18.160,824020,7.623138,3.342306,5.128380,-0.168005,-0.038104,0.011458
18.180,824040,8.202535,3.260903,5.114015,-0.155614,-0.037172,-0.050761
18.200,824060,8.331821,3.155558,5.128380,-0.164141,-0.035440,-0.073810
18.220,824080,8.178593,3.150769,5.214571,-0.182394,-0.051560,-0.103521
18.240,824100,8.408437,3.241749,5.329493,-0.207974,-0.064750,-0.144689
18.260,824120,8.532935,3.481169,5.501875,-0.240749,-0.042234,-0.194784
18.280,824140,8.446744,3.701436,5.712565,-0.275655,0.026247,-0.262998
18.300,824160,8.169016,3.787627,5.736507,-0.305100,0.103920,-0.329881
18.320,824180,8.006210,3.878607,5.631162,-0.319489,0.172002,-0.391167
18.340,824200,8.212111,3.892972,5.473145,-0.309896,0.194917,-0.422077
18.360,824220,8.489840,3.878607,5.348647,-0.274323,0.185458,-0.393432
18.380,824240,8.724471,3.763685,5.300763,-0.231023,0.141225,-0.318689
18.400,824260,8.662222,3.682282,5.219360,-0.193851,0.086201,-0.225560
18.420,824280,8.542512,3.639187,5.114015,-0.151617,0.022916,-0.145222
18.440,824300,8.303091,3.639187,5.166687,-0.111381,-0.014655,-0.101655
18.460,824320,8.202535,3.576937,5.262455,-0.081138,-0.028778,-0.087666
18.480,824340,8.327033,3.562572,5.329493,-0.073277,-0.017986,-0.081404
18.500,824360,8.384495,3.533842,5.305551,-0.077407,0.002531,-0.083403
18.520,824380,8.408437,3.519476,5.252879,-0.087799,0.024515,-0.078740
18.540,824400,8.283937,3.658340,5.195418,-0.078740,0.054092,-0.084868
18.560,824420,8.264784,3.734955,5.252879,-0.050361,0.063951,-0.118576
18.580,824440,8.370130,3.639187,5.310339,-0.022916,0.084335,-0.138827
18.600,824460,8.394072,3.543418,5.329493,-0.013323,0.100856,-0.128835
18.620,824480,8.437167,3.538630,5.286397,-0.006928,0.096326,-0.120574
18.640,824500,8.298303,3.524265,5.243302,0.000666,0.090464,-0.124305
18.660,824520,8.202535,3.505111,5.257667,0.003464,0.073677,-0.139227
18.680,824540,8.192958,3.514688,5.238513,-0.001732,0.055824,-0.168404
18.700,824560,8.207323,3.591303,5.224148,-0.011458,0.032109,-0.198115
18.720,824580,8.212111,3.643975,5.219360,-0.023715,0.016920,-0.205443
18.740,824600,8.101978,3.749320,5.200206,-0.037038,0.006795,-0.190787
18.760,824620,8.078036,3.845088,5.181053,-0.037438,-0.006795,-0.159611
18.780,824640,7.972692,4.007894,5.181053,-0.030243,-0.012790,-0.107518
18.800,824660,8.015787,4.247314,5.267244,-0.008527,-0.021184,-0.057556
18.820,824680,8.293514,4.548983,5.683835,0.009593,-0.035573,-0.012391
18.840,824700,9.897630,4.908113,5.908890,0.060753,-0.057956,0.043034
18.860,824720,9.102755,4.817134,5.578490,0.060087,0.056490,0.150418
18.880,824740,8.834604,5.200206,5.870583,0.102322,-0.009726,0.158678
18.900,824760,9.136273,5.224148,5.822699,0.146554,0.016787,0.097925
18.920,824780,8.652645,5.008670,5.846641,0.134963,0.049296,0.092462
18.940,824800,8.398860,4.836287,5.616797,0.122440,0.061420,0.115112
18.960,824820,8.236053,4.587290,5.339070,0.092862,0.052893,0.148953
18.980,824840,8.183381,4.434062,5.209783,0.072078,0.031842,0.201046
19.000,824860,7.915231,4.175488,5.114015,0.053959,0.024115,0.277387
19.020,824880,7.661446,4.027047,5.037400,0.032642,0.018119,0.354395
19.040,824900,7.560889,3.998317,4.960786,0.017320,0.020518,0.392632
19.060,824920,7.441179,3.988740,4.908113,0.014789,0.034907,0.390634
19.080,824940,7.489063,3.964798,4.965574,0.023715,0.039570,0.355594
19.100,824960,7.623138,3.878607,4.893748,0.032775,0.068214,0.325084
19.120,824980,7.833828,3.849876,4.936844,0.040236,0.061553,0.300303
19.140,825000,8.336611,3.758897,4.932055,0.042368,0.036905,0.276188
19.160,825020,8.633492,3.801992,5.023035,0.033308,0.011458,0.248743
19.180,825040,8.734048,3.821146,5.281609,0.015055,-0.026247,0.191986
19.200,825060,8.667010,3.830723,5.348647,-0.013057,-0.026779,0.126170
19.220,825080,8.791509,3.969586,5.315128,-0.026513,-0.025714,0.049562
19.240,825100,8.805874,4.094085,5.286397,-0.029178,-0.015588,-0.044899
19.260,825120,8.786720,4.175488,5.420473,-0.030110,-0.003997,-0.141492
19.280,825140,8.719683,4.118027,5.305551,-0.038637,0.036239,-0.195450
19.300,825160,8.240842,3.950433,5.137957,-0.050361,0.075942,-0.197982
19.320,825180,8.154651,3.854665,4.999093,-0.050761,0.075809,-0.179462
19.340,825200,8.092402,3.787627,4.994305,-0.060354,0.091930,-0.136162
19.360,825220,8.121132,3.811569,5.042189,-0.076208,0.101522,-0.083669
19.380,825240,8.240842,3.825934,4.922479,-0.085401,0.093129,-0.037838
19.400,825260,8.346188,3.912126,4.869806,-0.077940,0.069014,-0.004930
19.420,825280,8.350976,3.974375,4.855441,-0.057689,0.047430,0.010792
19.440,825300,8.212111,3.993528,4.927267,-0.033175,0.040369,0.013323
19.460,825320,8.135497,4.003105,5.003881,-0.022783,0.060620,0.007994
19.480,825340,8.197746,4.074931,5.032612,-0.020384,0.078207,-0.010925
19.500,825360,8.327033,4.098873,4.994305,-0.016387,0.083403,-0.039836
19.520,825380,8.456321,4.103662,4.951209,-0.012524,0.075276,-0.059021
19.540,825400,8.298303,4.041412,4.979939,-0.017187,0.074609,-0.058489
19.560,825420,8.346188,4.027047,4.970363,-0.027179,0.060753,-0.053825
19.580,825440,8.422802,3.960010,4.893748,-0.043433,0.044899,-0.039836
19.600,825460,8.576031,3.926491,4.821922,-0.055691,-0.002665,-0.017853
19.620,825480,8.576031,3.892972,4.745308,-0.070479,-0.062086,0.009459
19.640,825500,8.298303,3.892972,4.826711,-0.085135,-0.113646,0.024648
19.660,825520,8.097190,3.916914,4.951209,-0.099790,-0.138294,0.022383
19.680,825540,7.963115,3.950433,4.946421,-0.110182,-0.136162,0.012524
19.700,825560,8.116343,4.074931,5.080496,-0.118176,-0.147354,-0.003730
19.720,825580,9.380483,4.534618,5.204995,-0.101256,-0.190654,-0.018786
19.740,825600,10.228029,4.649539,5.123591,-0.066216,-0.194251,-0.001599
19.760,825620,9.040505,4.343082,5.118803,-0.067815,-0.163608,0.064217
19.780,825640,9.179369,4.448427,5.204995,-0.040902,-0.197182,0.093528
19.800,825660,9.284714,4.558560,5.300763,-0.031975,-0.169204,0.089798
19.820,825680,9.074024,4.410120,5.415684,-0.013989,-0.144689,0.083003
19.840,825700,8.863335,4.223372,5.382165,-0.025580,-0.126703,0.084469
19.860,825720,8.963891,4.127604,5.272032,-0.045032,-0.130700,0.088332
19.880,825740,8.968679,4.003105,5.176264,-0.066749,-0.142824,0.086600
19.900,825760,8.810662,3.854665,5.075707,-0.087400,-0.162542,0.081671
19.920,825780,8.580819,3.701436,4.908113,-0.113113,-0.190521,0.062219
19.940,825800,8.221688,3.514688,4.711789,-0.138427,-0.213170,0.026380
19.960,825820,7.809886,3.414132,4.553771,-0.158279,-0.224361,-0.011191
19.980,825840,7.527370,3.375824,4.481946,-0.168404,-0.224894,-0.049695
20.000,825860,7.603985,3.342306,4.419696,-0.168671,-0.223296,-0.078740
20.020,825880,7.972692,3.337517,4.443638,-0.169603,-0.223962,-0.093262
20.040,825900,8.293514,3.457227,4.434062,-0.167738,-0.219832,-0.098591
20.060,825920,8.461109,3.581726,4.539406,-0.163475,-0.208640,-0.106185
20.080,825940,8.609550,3.696647,4.716578,-0.170536,-0.179862,-0.118043
20.100,825960,8.829816,3.816358,4.874595,-0.187989,-0.138694,-0.131899
20.120,825980,8.992621,3.974375,5.023035,-0.208240,-0.080072,-0.157213
20.140,826000,8.920795,4.046201,5.090073,-0.224894,-0.001199,-0.185858
20.160,826020,8.705317,4.050989,5.166687,-0.242881,0.071678,-0.209173
20.180,826040,8.604761,3.993528,5.214571,-0.254605,0.143224,-0.227426
20.200,826060,8.370130,3.979163,5.219360,-0.267795,0.205709,-0.230623
20.220,826080,8.657434,3.993528,4.960786,-0.252207,0.209440,-0.231023
20.240,826100,8.935161,3.974375,4.730943,-0.215568,0.174799,-0.211571
20.260,826120,8.954314,3.979163,4.678270,-0.157479,0.118443,-0.177864
20.280,826140,8.911219,3.926491,4.707001,-0.104320,0.062352,-0.142291
20.300,826160,8.753201,3.816358,4.687847,-0.060620,0.028645,-0.103254
20.320,826180,8.576031,3.749320,4.726154,-0.031975,0.005196,-0.069547
20.340,826200,8.403648,3.715801,4.778827,-0.014256,0.007328,-0.055158
20.360,826220,8.418014,3.672705,4.721366,-0.009459,0.016254,-0.047031
20.380,826240,8.552089,3.615245,4.620809,-0.019585,0.022116,-0.029577
20.400,826260,8.552089,3.682282,4.683059,-0.030110,0.022916,-0.031709
20.420,826280,8.580819,3.687071,4.687847,-0.032908,0.014655,-0.052360
20.440,826300,8.532935,3.667917,4.692636,-0.049429,0.028245,-0.053825
20.460,826320,8.379706,3.581726,4.620809,-0.067548,0.041968,-0.046231
20.480,826340,8.480263,3.529053,4.505888,-0.080871,0.027579,-0.033708
20.500,826360,8.494628,3.500323,4.319140,-0.082870,0.008527,0.011058
20.520,826380,8.192958,3.624821,4.338294,-0.066083,-0.006662,0.057289
20.540,826400,8.073248,3.787627,4.481946,-0.031709,-0.011991,0.079006
20.560,826420,7.967903,3.773262,4.510676,0.009859,0.015455,0.100323
20.580,826440,8.183381,3.864242,4.625597,0.032508,0.021850,0.122573
20.600,826460,9.059659,4.151546,4.979939,0.052360,0.011325,0.142957
20.620,826480,10.314221,4.314352,5.147533,0.067948,0.016654,0.170403
20.640,826500,9.548077,4.247314,5.056554,0.029044,0.091796,0.237018
20.660,826520,9.107543,4.419696,5.367800,0.009593,0.081138,0.203311
20.680,826540,8.992621,4.280833,5.300763,-0.019718,0.137495,0.140825
20.700,826560,8.757990,4.175488,5.243302,-0.061686,0.183060,0.118576
20.720,826580,8.571242,4.146757,5.075707,-0.079406,0.211838,0.102721
20.740,826600,8.441956,4.189853,5.023035,-0.082337,0.217167,0.079672
20.760,826620,8.384495,4.137180,4.989516,-0.061686,0.223029,0.071145
20.780,826640,8.111555,4.070143,5.056554,-0.053825,0.237551,0.077541
20.800,826660,7.900866,4.098873,5.176264,-0.045565,0.256603,0.070613
20.820,826680,7.766790,4.113238,5.195418,-0.046098,0.283250,0.051827
20.840,826700,7.805098,4.084508,5.070919,-0.036372,0.297505,0.039969
20.860,826720,7.872135,4.050989,4.965574,-0.027446,0.290444,0.041968
20.880,826740,8.010999,4.065354,4.946421,-0.011858,0.266729,0.051827
20.900,826760,8.164227,4.094085,4.970363,0.009193,0.245012,0.065283
20.920,826780,8.087613,4.098873,5.075707,0.033308,0.244213,0.071279
20.940,826800,8.169016,4.271256,5.171476,0.058089,0.243946,0.053292
20.960,826820,8.427590,4.357447,5.363012,0.080072,0.267395,0.014256
20.980,826840,8.576031,4.400543,5.386954,0.085801,0.298172,-0.011058
21.000,826860,8.599973,4.419696,5.430049,0.088332,0.317890,-0.041168
21.020,826880,8.408437,4.280833,5.434838,0.091263,0.323752,-0.078207
21.040,826900,8.240842,4.161122,5.492299,0.074343,0.313227,-0.093129
21.060,826920,8.346188,4.055778,5.439626,0.049562,0.299504,-0.079806
21.080,826940,8.374918,4.007894,5.281609,0.023715,0.267528,-0.052893
21.100,826960,8.384495,4.007894,5.147533,0.014522,0.212770,-0.014123
21.120,826980,8.240842,3.912126,5.042189,0.011991,0.165340,0.030510
21.140,827000,8.054094,3.940856,5.094861,0.010925,0.125904,0.051294
21.160,827020,8.058883,3.921702,5.214571,0.012257,0.112980,0.059821
21.180,827040,8.135497,3.936068,5.233725,0.001599,0.112447,0.063018
21.200,827060,8.183381,3.964798,5.190629,-0.006395,0.105652,0.049828
21.220,827080,8.264784,3.955221,5.209783,-0.013190,0.085801,0.027845
21.240,827100,8.317456,3.960010,5.214571,-0.026247,0.065949,0.007328
21.260,827120,8.365341,3.955221,5.262455,-0.042101,0.045299,-0.018386
21.280,827140,8.264784,3.902549,5.262455,-0.061953,0.042234,-0.038637
21.300,827160,8.207323,3.907337,5.233725,-0.088199,0.037704,-0.053026
21.320,827180,8.178593,3.892972,5.209783,-0.116711,0.033574,-0.067282
21.340,827200,8.216900,3.902549,5.190629,-0.139493,0.018253,-0.076075
21.360,827220,8.370130,3.897760,5.152322,-0.162409,0.007461,-0.069413
21.380,827240,8.274361,3.892972,5.147533,-0.184658,0.003597,-0.053159
21.400,827260,8.154651,3.907337,5.161899,-0.200113,-0.005862,-0.041968
21.420,827280,8.135497,3.950433,5.152322,-0.208773,-0.024248,-0.036372
21.440,827300,8.245630,4.017470,5.190629,-0.206375,-0.047297,-0.033841
21.460,827320,8.432379,4.089296,5.262455,-0.210106,-0.075809,-0.031043
21.480,827340,8.580819,4.218584,5.492299,-0.218499,-0.106452,-0.028378
21.500,827360,10.486604,4.764462,6.033388,-0.215568,-0.245945,-0.053692
21.520,827380,10.218452,4.113238,5.391742,-0.225161,-0.143623,0.025314
21.540,827400,8.461109,4.247314,5.884948,-0.288845,-0.202645,0.089398
21.560,827420,8.724471,4.376601,5.760449,-0.235420,-0.210772,0.020384
21.580,827440,8.192958,4.141969,5.669470,-0.247677,-0.176265,-0.037305
21.600,827460,7.872135,4.041412,5.798757,-0.237285,-0.174533,-0.055158
21.620,827480,8.518570,4.074931,5.793968,-0.223296,-0.195051,-0.093262
21.640,827500,8.652645,3.988740,5.679047,-0.224228,-0.211172,-0.102855
21.660,827520,8.599973,3.950433,5.612009,-0.223695,-0.250475,-0.097259
21.680,827540,8.418014,3.945644,5.506664,-0.223562,-0.277254,-0.126170
21.700,827560,8.054094,3.883395,5.468357,-0.227026,-0.300436,-0.195850
21.720,827580,7.608773,3.653552,5.396531,-0.232888,-0.277121,-0.263665
21.740,827600,7.058106,3.371036,5.286397,-0.261666,-0.236619,-0.299371
21.760,827620,7.187394,3.294421,5.276821,-0.294441,-0.238351,-0.306698
21.780,827640,7.852982,3.385401,5.224148,-0.324818,-0.244879,-0.273124
21.800,827660,8.010999,3.500323,5.319916,-0.344669,-0.219165,-0.210106
21.820,827680,7.852982,3.782839,5.482722,-0.335476,-0.185325,-0.177198
21.840,827700,8.073248,3.988740,5.626374,-0.307897,-0.152550,-0.201312
21.860,827720,8.389283,4.199430,5.664681,-0.281784,-0.107651,-0.247544
21.880,827740,8.145074,4.299986,5.846641,-0.261933,-0.028778,-0.303101
21.900,827760,7.943961,4.362236,6.014235,-0.256470,0.055025,-0.360923
21.920,827780,8.015787,4.443638,6.038177,-0.268594,0.139493,-0.406888
21.940,827800,8.159439,4.443638,5.817910,-0.271658,0.185458,-0.423675
21.960,827820,8.465898,4.314352,5.530606,-0.259268,0.144556,-0.384505
21.980,827840,8.480263,4.185065,5.272032,-0.248876,0.067681,-0.290977
22.000,827860,8.341399,4.137180,5.224148,-0.227959,-0.024914,-0.207441
22.020,827880,8.149862,4.065354,5.190629,-0.200913,-0.087400,-0.144156
22.040,827900,7.891289,3.955221,5.219360,-0.184792,-0.114579,-0.109116
22.060,827920,7.829040,3.993528,5.291186,-0.173201,-0.109916,-0.105786
22.080,827940,7.857770,4.036624,5.319916,-0.168804,-0.086867,-0.127103
22.100,827960,7.924808,4.074931,5.391742,-0.165873,-0.048763,-0.142424
22.120,827980,7.991845,4.084508,5.458780,-0.170802,-0.002531,-0.147487
22.140,828000,8.001422,4.103662,5.477933,-0.174533,0.044899,-0.144556
22.160,828020,8.068460,4.161122,5.530606,-0.173201,0.075675,-0.135230
22.180,828040,8.135497,4.185065,5.516241,-0.160144,0.086201,-0.122040
22.200,828060,8.164227,4.041412,5.549759,-0.146288,0.080338,-0.098058
22.220,828080,8.341399,3.998317,5.420473,-0.131899,0.048629,-0.043300
22.240,828100,8.269572,4.027047,5.420473,-0.118842,0.009992,-0.007061
22.260,828120,8.135497,3.988740,5.458780,-0.095260,-0.042368,0.011724
22.280,828140,8.092402,3.983952,5.530606,-0.075942,-0.077407,0.048629
22.300,828160,8.154651,3.955221,5.540183,-0.060221,-0.122839,0.094727
22.320,828180,8.312668,3.926491,5.430049,-0.043833,-0.189455,0.139893
22.340,828200,8.542512,3.849876,5.262455,-0.021717,-0.267528,0.195583
22.360,828220,8.389283,3.763685,5.171476,-0.002798,-0.341871,0.253672
22.380,828240,8.240842,3.782839,5.171476,0.017853,-0.394631,0.287513
22.400,828260,8.073248,3.787627,5.190629,0.034907,-0.397162,0.305499
22.420,828280,8.360553,4.050989,5.396531,0.045565,-0.396763,0.306832
22.440,828300,10.151415,4.314352,5.453991,0.101389,-0.416348,0.285648
22.460,828320,9.342175,3.835511,5.037400,0.077407,-0.283516,0.356260
22.480,828340,9.715671,4.558560,5.468357,0.071279,-0.365187,0.341338
22.500,828360,9.600749,4.501099,5.209783,0.084469,-0.250075,0.245678
22.520,828380,8.729259,4.400543,5.305551,0.050894,-0.192386,0.169603
22.540,828400,8.791509,4.223372,5.070919,0.042501,-0.140559,0.105919
22.560,828420,8.542512,4.098873,4.826711,-0.000933,-0.083003,0.071012
22.580,828440,8.331821,4.055778,4.769250,-0.025047,-0.049162,0.057156
22.600,828460,8.274361,3.979163,4.721366,-0.051294,-0.015455,0.065150
22.620,828480,8.121132,3.902549,4.764462,-0.083936,0.025181,0.100190
22.640,828500,7.948750,3.878607,4.735731,-0.106452,0.074476,0.141891
22.660,828520,7.642292,3.936068,4.630386,-0.105519,0.129234,0.177464
22.680,828540,7.455544,3.979163,4.568137,-0.074476,0.168005,0.192652
22.700,828560,7.359776,3.936068,4.510676,-0.023049,0.202778,0.187590
22.720,828580,7.551312,3.955221,4.601655,0.023049,0.203844,0.165473
22.740,828600,8.101978,3.931279,4.730943,0.075809,0.205309,0.140026
22.760,828620,8.173804,3.845088,4.812346,0.094861,0.228092,0.135096
22.780,828640,8.384495,4.017470,4.975151,0.107651,0.228758,0.108051
22.800,828660,8.537724,4.228160,5.142745,0.113513,0.258868,0.046498
22.820,828680,8.437167,4.386178,5.396531,0.119775,0.310296,-0.027579
22.840,828700,8.441956,4.505888,5.583278,0.111115,0.372381,-0.105919
22.860,828720,8.695741,4.491522,5.607220,0.111914,0.419545,-0.173201
22.880,828740,8.690952,4.228160,5.420473,0.101922,0.445659,-0.190920
22.900,828760,8.561666,3.998317,5.243302,0.088332,0.430337,-0.159611
22.920,828780,8.398860,3.907337,5.118803,0.081937,0.390234,-0.108717
22.940,828800,8.173804,3.778050,5.109226,0.076608,0.346268,-0.053825
22.960,828820,8.082825,3.696647,5.123591,0.061020,0.308963,0.000666
22.980,828840,8.121132,3.687071,5.080496,0.045832,0.274456,0.050894
23.000,828860,8.116343,3.773262,5.133168,0.032109,0.244213,0.077807
23.020,828880,8.207323,3.835511,5.171476,0.030243,0.213703,0.073943
23.040,828900,8.202535,3.878607,5.200206,0.029977,0.194251,0.056490
23.060,828920,8.346188,3.931279,5.219360,0.028112,0.173467,0.029178
23.080,828940,8.394072,3.950433,5.219360,0.028911,0.162276,0.001332
23.100,828960,8.461109,3.983952,5.257667,0.022783,0.136562,-0.039703
23.120,828980,8.542512,3.921702,5.190629,0.011191,0.109916,-0.069147
23.140,829000,8.504205,3.878607,5.219360,-0.022649,0.083270,-0.072345
23.160,829020,8.485051,3.907337,5.233725,-0.056623,0.053825,-0.065150
23.180,829040,8.418014,3.979163,5.195418,-0.088732,0.035040,-0.053959
23.200,829060,8.446744,3.998317,5.152322,-0.102055,0.013456,-0.036772
23.220,829080,8.408437,3.998317,5.075707,-0.102988,-0.005329,-0.008527
23.240,829100,8.307879,3.964798,4.955997,-0.086201,-0.034907,0.023848
23.260,829120,8.365341,3.950433,4.941632,-0.058622,-0.063551,0.054225
23.280,829140,8.283937,3.897760,5.003881,-0.039836,-0.077274,0.075009
23.300,829160,8.283937,3.816358,5.075707,-0.028511,-0.089132,0.082737
23.320,829180,8.360553,3.725378,5.200206,-0.048763,-0.101522,0.088865
23.340,829200,8.384495,3.835511,5.406107,-0.096726,-0.120041,0.094861
23.360,829220,9.988609,4.496311,5.913678,-0.129101,-0.236352,0.057289
23.380,829240,10.802638,4.453215,5.458780,-0.132299,-0.199181,0.069280
23.400,829260,8.882488,3.974375,5.358223,-0.178663,-0.204377,0.142691
23.420,829280,9.351752,4.280833,5.262455,-0.129900,-0.285515,0.145089
23.440,829300,8.772355,4.319140,5.401319,-0.119375,-0.211571,0.106319
23.460,829320,8.542512,4.395754,5.722142,-0.087533,-0.173201,0.038770
23.480,829340,8.566454,4.204218,5.530606,-0.091796,-0.104853,-0.025047
23.500,829360,8.552089,3.979163,5.477933,-0.116178,-0.093262,-0.060354
23.520,829380,8.777143,3.773262,5.396531,-0.153083,-0.113779,-0.067415
23.540,829400,8.710106,3.500323,5.157111,-0.213303,-0.141092,-0.048629
23.560,829420,8.073248,3.385401,5.104438,-0.294708,-0.175599,-0.040636
23.580,829440,7.536947,3.361459,5.008670,-0.352796,-0.195450,-0.066216
23.600,829460,7.058106,3.337517,4.874595,-0.389835,-0.189055,-0.109916
23.620,829480,7.158663,3.447650,4.855441,-0.402092,-0.205443,-0.162542
23.640,829500,7.800309,3.505111,4.793192,-0.393965,-0.221430,-0.190654
23.660,829520,8.212111,3.586514,4.879383,-0.371715,-0.221430,-0.184658
23.680,829540,8.039729,3.658340,5.133168,-0.340672,-0.191054,-0.177331
23.700,829560,8.331821,3.840300,5.329493,-0.310695,-0.150418,-0.195317
23.720,829580,8.667010,4.036624,5.425261,-0.288179,-0.082470,-0.223962
23.740,829600,8.609550,4.161122,5.602432,-0.272058,0.009459,-0.262466
23.760,829620,8.389283,4.252102,5.784391,-0.266462,0.111914,-0.309896
23.780,829640,8.312668,4.299986,5.875371,-0.257003,0.219965,-0.362123
23.800,829660,8.259995,4.185065,5.789180,-0.262066,0.297505,-0.390501
23.820,829680,8.523358,4.170700,5.473145,-0.251141,0.308164,-0.381175
23.840,829700,8.657434,3.969586,5.200206,-0.214769,0.259934,-0.325084
23.860,829720,8.552089,3.854665,5.114015,-0.171469,0.166939,-0.241415
23.880,829740,8.432379,3.840300,5.166687,-0.128435,0.070213,-0.172135
23.900,829760,8.418014,3.811569,5.190629,-0.095260,-0.004663,-0.121640
23.920,829780,8.283937,3.725378,5.181053,-0.082070,-0.061286,-0.085002
23.940,829800,8.183381,3.696647,5.204995,-0.083136,-0.092862,-0.067282
23.960,829820,8.125920,3.782839,5.209783,-0.091130,-0.098991,-0.070479
23.980,829840,8.164227,3.873818,5.248090,-0.091397,-0.082737,-0.079939
24.000,829860,8.178593,3.902549,5.272032,-0.091530,-0.048896,-0.083536
24.020,829880,8.149862,3.950433,5.228937,-0.088466,-0.015188,-0.085135
24.040,829900,8.135497,3.926491,5.185841,-0.073011,0.019985,-0.077407
24.060,829920,7.958326,3.883395,5.214571,-0.060753,0.041302,-0.064750
24.080,829940,8.106767,3.797204,5.133168,-0.047297,0.045432,-0.037838
24.100,829960,8.255207,3.811569,5.085284,-0.040103,0.039969,0.001865
24.120,829980,8.106767,3.825934,5.046977,-0.032908,0.005995,0.012257
24.140,830000,8.034941,3.725378,4.979939,-0.021983,-0.034907,0.012790
24.160,830020,7.771579,3.653552,4.970363,-0.024648,-0.041835,0.056490
24.180,830040,7.560889,3.835511,4.984728,-0.011591,-0.021184,0.125237
24.200,830060,7.661446,4.074931,4.999093,0.021184,0.007861,0.179995
24.220,830080,8.078036,4.189853,5.070919,0.065683,0.040236,0.208240
24.240,830100,8.456321,4.486734,5.482722,0.082470,0.045698,0.222629
24.260,830120,10.429143,4.764462,6.066907,0.126303,0.021450,0.198515
24.280,830140,9.787497,4.285621,5.822699,0.082870,0.156547,0.251807
24.300,830160,9.758766,4.716578,6.354211,0.037704,0.087400,0.228492
24.320,830180,9.749189,4.582502,6.129156,0.019452,0.141625,0.152017
24.340,830200,9.074024,4.448427,6.009446,-0.029044,0.134297,0.104187
24.360,830220,8.690952,4.295198,5.736507,-0.052093,0.104587,0.061953
24.380,830240,8.188169,4.012682,5.406107,-0.066749,0.065283,0.039303
24.400,830260,7.747637,3.811569,5.348647,-0.075675,0.031842,0.051694
24.420,830280,7.359776,3.562572,5.214571,-0.093662,0.042900,0.099124
24.440,830300,7.105990,3.557784,5.003881,-0.104720,0.036905,0.163208
24.460,830320,7.153875,3.658340,4.769250,-0.069280,0.028245,0.217966
24.480,830340,6.914454,3.615245,4.692636,-0.022916,0.030910,0.258069
24.500,830360,7.000646,3.768473,4.845864,0.026380,0.017187,0.264198
24.520,830380,7.685388,3.988740,5.099649,0.077674,0.026913,0.239816
24.540,830400,8.149862,4.103662,5.310339,0.110315,0.067548,0.212104
24.560,830420,8.513782,4.170700,5.521029,0.131100,0.100190,0.167472
24.580,830440,8.987833,4.299986,5.645528,0.137228,0.128835,0.112580
24.600,830460,8.954314,4.501099,5.770026,0.132565,0.178130,0.036905
24.620,830480,8.528147,4.620809,5.990293,0.129234,0.239417,-0.086334
24.640,830500,8.197746,4.611232,6.177041,0.112447,0.333211,-0.219698
24.660,830520,7.829040,4.376601,6.138733,0.070613,0.439930,-0.316824
24.680,830540,7.958326,3.998317,5.808333,0.011325,0.472571,-0.335476
24.700,830560,8.441956,3.811569,5.377377,-0.044100,0.430470,-0.245279
24.720,830580,8.379706,3.768473,5.166687,-0.078873,0.344270,-0.114446
24.740,830600,8.169016,3.845088,5.128380,-0.076608,0.245945,-0.009859
24.760,830620,7.958326,3.854665,5.171476,-0.051827,0.176398,0.042101
24.780,830640,7.771579,3.902549,5.272032,-0.021983,0.129101,0.050894
24.800,830660,7.819463,3.912126,5.410896,0.005596,0.113779,0.033974
24.820,830680,8.030152,3.936068,5.415684,0.010792,0.110449,-0.003198
24.840,830700,8.087613,3.993528,5.463568,0.007061,0.107118,-0.055557
24.860,830720,8.078036,4.022259,5.540183,-0.002265,0.111648,-0.110182
24.880,830740,8.034941,4.022259,5.559336,-0.029044,0.120308,-0.160277
24.900,830760,8.049306,3.998317,5.583278,-0.067149,0.118443,-0.198248
24.920,830780,8.216900,4.012682,5.458780,-0.105919,0.095127,-0.207708
24.940,830800,8.336611,4.065354,5.310339,-0.138427,0.048763,-0.184792
24.960,830820,8.331821,4.060566,5.252879,-0.152816,-0.003997,-0.135096
24.980,830840,8.231265,4.141969,5.281609,-0.156813,-0.051028,-0.065417
25.000,830860,8.183381,4.247314,5.267244,-0.145622,-0.091397,-0.002531
25.020,830880,8.250419,4.247314,5.214571,-0.114845,-0.143090,0.047697
25.040,830900,8.140285,4.175488,5.185841,-0.094461,-0.177198,0.092995
25.060,830920,7.867347,4.137180,5.233725,-0.072478,-0.195717,0.121240
25.080,830940,7.632715,4.156334,5.377377,-0.053426,-0.199047,0.115245
25.100,830960,8.149862,4.443638,5.765238,-0.052227,-0.218100,0.077541
25.120,830980,9.567230,4.754885,6.009446,-0.062352,-0.236885,0.040103
25.140,831000,9.265560,4.362236,5.568913,-0.083403,-0.153749,0.077008
25.160,831020,8.044518,4.295198,5.626374,-0.129900,-0.179995,0.133631
25.180,831040,8.226477,4.611232,5.770026,-0.096859,-0.190920,0.096193
25.200,831060,8.288726,4.750096,5.894525,-0.090331,-0.162009,0.018386
25.220,831080,8.446744,4.520253,5.942409,-0.082204,-0.168404,-0.032242
25.240,831100,8.757990,4.180276,5.846641,-0.119242,-0.194784,-0.012657
25.260,831120,9.117120,4.180276,5.894525,-0.164407,-0.234487,0.058355
25.280,831140,8.992621,4.161122,5.875371,-0.208907,-0.243280,0.120708
25.300,831160,8.786720,4.189853,5.808333,-0.237285,-0.251940,0.144689
25.320,831180,8.446744,4.070143,5.659893,-0.250741,-0.237951,0.125637
25.340,831200,8.049306,3.811569,5.449203,-0.252473,-0.219832,0.091663
25.360,831220,7.699753,3.519476,5.224148,-0.247810,-0.206508,0.060753
25.380,831240,7.675811,3.390190,5.099649,-0.237685,-0.233554,0.017587
25.400,831260,7.991845,3.165135,5.090073,-0.232222,-0.268461,-0.023715
25.420,831280,8.097190,3.074155,5.075707,-0.257136,-0.267395,-0.028378
25.440,831300,8.020576,3.213019,5.161899,-0.279119,-0.251008,-0.035706
25.460,831320,8.178593,3.399766,5.209783,-0.294574,-0.233688,-0.079539
25.480,831340,8.398860,3.610456,5.372589,-0.309763,-0.187057,-0.134297
25.500,831360,8.441956,3.811569,5.588067,-0.317890,-0.106851,-0.196116
25.520,831380,8.154651,3.931279,5.621585,-0.324418,-0.005862,-0.282184
25.540,831400,8.010999,3.993528,5.568913,-0.315492,0.071145,-0.370516
25.560,831420,8.087613,4.055778,5.477933,-0.291776,0.120708,-0.436732
25.580,831440,8.197746,3.974375,5.372589,-0.264064,0.139493,-0.464844
25.600,831460,8.485051,3.878607,5.262455,-0.238084,0.124172,-0.431669
25.620,831480,8.470686,3.797204,5.161899,-0.222496,0.088199,-0.351997
25.640,831500,8.451532,3.797204,5.061342,-0.201179,0.028511,-0.272858
25.660,831520,8.269572,3.773262,5.056554,-0.180129,-0.012923,-0.204643
25.680,831540,8.073248,3.830723,5.137957,-0.156014,-0.029178,-0.156946
25.700,831560,8.010999,3.878607,5.204995,-0.138294,-0.017054,-0.139227
25.720,831580,8.178593,3.892972,5.295974,-0.123239,0.000533,-0.129767
25.740,831600,8.336611,3.859453,5.243302,-0.115911,0.022916,-0.106319
25.760,831620,8.408437,3.792415,5.190629,-0.107784,0.032775,-0.074609
25.780,831640,8.226477,3.778050,5.171476,-0.093395,0.047963,-0.053159
25.800,831660,8.039729,3.773262,5.257667,-0.075142,0.060487,-0.048896
25.820,831680,7.996634,3.734955,5.252879,-0.062485,0.070479,-0.051294
25.840,831700,8.192958,3.711013,5.257667,-0.044899,0.063685,-0.044499
25.860,831720,8.264784,3.653552,5.248090,-0.039303,0.049695,-0.027579
25.880,831740,8.202535,3.610456,5.219360,-0.045565,0.017986,-0.008926
25.900,831760,8.183381,3.600879,5.272032,-0.060487,-0.016387,0.002931
25.920,831780,8.231265,3.624821,5.262455,-0.079539,-0.048763,0.014922
25.940,831800,8.274361,3.706224,5.248090,-0.093928,-0.087933,0.030110
25.960,831820,8.255207,3.701436,5.233725,-0.100190,-0.122173,0.049962
25.980,831840,8.279149,3.773262,5.147533,-0.096726,-0.157479,0.090198
26.000,831860,8.202535,3.936068,5.190629,-0.070879,-0.176798,0.132165
26.020,831880,8.925584,4.477157,5.770026,-0.029977,-0.238217,0.143224
26.040,831900,10.591949,4.754885,5.884948,0.048629,-0.205976,0.144423
26.060,831920,8.777143,4.491522,5.789180,0.032109,-0.056090,0.225694
26.080,831940,9.390059,4.999093,6.162675,0.105786,-0.101922,0.168404
26.100,831960,9.284714,4.874595,5.899313,0.122706,0.003331,0.089531
26.120,831980,8.868123,4.730943,5.966351,0.151084,0.047164,0.050361
26.140,832000,8.341399,4.486734,5.741296,0.141891,0.086734,0.017587
26.160,832020,8.087613,4.295198,5.487510,0.130300,0.081538,0.005862
26.180,832040,7.905654,4.055778,5.248090,0.106185,0.071412,0.044233
26.200,832060,7.489063,3.816358,5.056554,0.072478,0.048363,0.120175
26.220,832080,7.321469,3.720589,4.797980,0.046098,0.004530,0.197182
26.240,832100,6.981492,3.711013,4.635174,0.029844,-0.004397,0.262199
26.260,832120,6.775591,3.787627,4.644751,0.037305,-0.008127,0.283916
26.280,832140,7.139510,3.936068,4.745308,0.066749,0.004663,0.266329
26.300,832160,7.479486,4.185065,4.927267,0.089132,0.063152,0.232222
26.320,832180,7.862558,4.410120,5.248090,0.114845,0.138694,0.162675
26.340,832200,8.274361,4.702212,5.477933,0.131632,0.224761,0.061953
26.360,832220,8.480263,4.970363,5.702989,0.147087,0.324152,-0.048230
26.380,832240,8.465898,5.157111,5.942409,0.157613,0.421943,-0.173467
26.400,832260,8.643068,5.114015,6.019023,0.157346,0.487360,-0.290178
26.420,832280,8.963891,4.821922,5.755661,0.146155,0.506412,-0.319355
26.440,832300,8.820239,4.424485,5.521029,0.110315,0.468974,-0.235553
26.460,832320,8.633492,4.137180,5.310339,0.068214,0.387570,-0.110182
26.480,832340,8.346188,3.883395,5.066131,0.024248,0.297239,0.012257
26.500,832360,8.135497,3.792415,4.965574,-0.013057,0.198648,0.113247
26.520,832380,7.862558,3.778050,4.946421,-0.041168,0.133764,0.163208
26.540,832400,7.656657,3.725378,4.965574,-0.051294,0.108983,0.168404
26.560,832420,7.675811,3.739743,4.936844,-0.053825,0.099257,0.143623
26.580,832440,7.795521,3.830723,5.042189,-0.057423,0.109916,0.097126
26.600,832460,7.886500,3.830723,5.094861,-0.055025,0.124971,0.030510
26.620,832480,8.245630,3.950433,5.133168,-0.055025,0.140159,-0.043833
26.640,832500,8.303091,4.079720,5.157111,-0.056890,0.144556,-0.110182
26.660,832520,8.236053,4.012682,5.238513,-0.057023,0.130433,-0.189188
26.680,832540,8.240842,3.998317,5.267244,-0.082070,0.124971,-0.233155
26.700,832560,8.264784,4.070143,5.200206,-0.115245,0.121640,-0.254738
26.720,832580,8.288726,4.170700,5.090073,-0.140159,0.090997,-0.266063
26.740,832600,8.274361,4.070143,5.099649,-0.157746,0.059421,-0.236086
26.760,832620,8.288726,4.055778,5.114015,-0.186790,0.024115,-0.167605
26.780,832640,8.231265,4.094085,5.046977,-0.205043,-0.004530,-0.088466
26.800,832660,8.130709,4.189853,5.027823,-0.207175,-0.032775,-0.012923
26.820,832680,8.125920,4.290410,5.051765,-0.179196,-0.049962,0.043167
26.840,832700,8.039729,4.309563,5.166687,-0.140559,-0.051560,0.071279
26.860,832720,8.025364,4.304775,5.291186,-0.102322,-0.039836,0.088865
26.880,832740,7.982268,4.338294,5.382165,-0.078207,-0.021983,0.100590
26.900,832760,8.619126,4.577713,5.813122,-0.070080,-0.048763,0.081671
26.920,832780,10.103531,4.807557,5.846641,-0.055824,-0.070879,0.070479
26.940,832800,8.781932,4.357447,5.568913,-0.098591,-0.015455,0.129900
26.960,832820,8.700529,4.491522,5.784391,-0.097792,-0.131899,0.134564
26.980,832840,8.805874,4.438850,5.616797,-0.105519,-0.130567,0.125104
27.000,832860,8.599973,4.534618,5.884948,-0.112447,-0.161609,0.118309
27.020,832880,8.556877,4.410120,5.784391,-0.124571,-0.158279,0.101256
27.040,832900,8.394072,4.247314,5.755661,-0.163208,-0.163342,0.101389
27.060,832920,8.556877,4.247314,5.789180,-0.189588,-0.169070,0.109116
27.080,832940,8.331821,4.199430,5.755661,-0.212504,-0.147087,0.101655
27.100,832960,8.054094,4.122815,5.841852,-0.227692,-0.136296,0.069147
27.120,832980,7.881712,3.993528,5.741296,-0.245812,-0.105519,0.021983
27.140,833000,7.541735,3.821146,5.650316,-0.260867,-0.085002,-0.021450
27.160,833020,7.225701,3.572149,5.540183,-0.272724,-0.071145,-0.051028
27.180,833040,7.220912,3.505111,5.439626,-0.282583,-0.089132,-0.074343
27.200,833060,7.407660,3.524265,5.540183,-0.294041,-0.113913,-0.110582
27.220,833080,7.738060,3.457227,5.635951,-0.305100,-0.108583,-0.133231
27.240,833100,7.599196,3.524265,5.712565,-0.327616,-0.072078,-0.136429
27.260,833120,7.738060,3.773262,5.937620,-0.339606,-0.048363,-0.187989
27.280,833140,7.943961,3.940856,6.162675,-0.345202,0.011458,-0.255404
27.300,833160,7.848193,4.185065,6.459556,-0.352663,0.108184,-0.314159
27.320,833180,7.694964,4.386178,6.560112,-0.346801,0.203577,-0.393299
27.340,833200,7.771579,4.400543,6.411672,-0.330280,0.250608,-0.461513
27.360,833220,8.140285,4.367024,6.119579,-0.288979,0.227692,-0.461247
27.380,833240,8.365341,4.295198,5.904101,-0.239283,0.148953,-0.387969
27.400,833260,8.322245,4.161122,5.817910,-0.186923,0.052893,-0.276055
27.420,833280,8.116343,4.060566,5.760449,-0.130300,-0.026513,-0.165473
27.440,833300,7.862558,3.993528,5.722142,-0.082603,-0.083136,-0.089132
27.460,833320,7.800309,3.825934,5.650316,-0.035306,-0.120041,-0.038371
27.480,833340,7.694964,3.715801,5.669470,-0.020251,-0.118709,-0.000400
27.500,833360,7.723695,3.773262,5.765238,-0.018652,-0.098591,0.010525
27.520,833380,7.814674,3.806781,5.774815,-0.020251,-0.063818,-0.005063
27.540,833400,7.814674,3.797204,5.765238,-0.019585,-0.021317,-0.018786
27.560,833420,7.876924,3.888184,5.726931,-0.019319,0.012391,-0.028511
27.580,833440,7.996634,3.940856,5.688623,0.000000,0.037305,-0.036772
27.600,833460,8.049306,3.864242,5.688623,0.015055,0.047031,-0.032775
27.620,833480,8.169016,3.801992,5.564125,0.031443,0.037704,-0.013456
27.640,833500,8.149862,3.725378,5.559336,0.043433,0.016121,0.011991
27.660,833520,8.140285,3.672705,5.497087,0.051161,-0.016387,0.041302
27.680,833540,8.226477,3.691859,5.449203,0.054492,-0.054625,0.071545
27.700,833560,8.197746,3.682282,5.363012,0.052360,-0.096726,0.092329
27.720,833580,8.111555,3.639187,5.286397,0.043167,-0.143090,0.102855
27.740,833600,7.943961,3.591303,5.281609,0.017720,-0.175865,0.110982
27.760,833620,7.886500,3.610456,5.305551,-0.008394,-0.197315,0.114712
27.780,833640,8.039729,3.596091,5.315128,-0.032109,-0.203977,0.122306
27.800,833660,8.116343,3.730166,5.315128,-0.064617,-0.209440,0.146021
27.820,833680,8.418014,4.108450,5.597643,-0.081271,-0.231023,0.154681
27.840,833700,10.558430,4.635174,6.014235,-0.056090,-0.290178,0.139893
27.860,833720,9.868899,4.362236,5.482722,-0.067948,-0.146421,0.208773
27.880,833740,9.332599,4.764462,6.181829,-0.056623,-0.219698,0.193185
27.900,833760,9.586384,4.778827,5.942409,-0.021717,-0.126170,0.115245
27.920,833780,8.949526,4.596867,5.956774,-0.040902,-0.055025,0.067415
27.940,833800,8.489840,4.333505,5.573701,-0.028511,-0.020518,0.029577
27.960,833820,8.097190,4.141969,5.286397,-0.027046,-0.014922,0.007594
27.980,833840,7.872135,3.964798,5.204995,-0.015188,-0.029044,0.021717
28.000,833860,7.623138,3.768473,5.051765,-0.021717,-0.016254,0.079406
28.020,833880,7.422025,3.706224,5.032612,-0.020518,-0.008660,0.154015
28.040,833900,7.350199,3.730166,4.898537,-0.000799,0.005862,0.207974
28.060,833920,7.211336,3.749320,4.783615,0.036772,0.016920,0.223562
28.080,833940,7.158663,3.845088,4.807557,0.080338,0.033041,0.210239
28.100,833960,7.493851,3.983952,4.941632,0.119642,0.059821,0.175599
28.120,833980,7.881712,4.170700,5.056554,0.148819,0.097259,0.124172
28.140,834000,8.063671,4.299986,5.209783,0.175998,0.143890,0.062485
28.160,834020,8.245630,4.496311,5.415684,0.194651,0.197715,-0.014655
28.180,834040,8.355764,4.692636,5.588067,0.197182,0.265263,-0.109383
28.200,834060,8.298303,4.850653,5.722142,0.190654,0.340006,-0.217300
28.220,834080,8.264784,4.769250,5.827487,0.164674,0.407554,-0.306965
28.240,834100,8.394072,4.625597,5.750873,0.121240,0.446991,-0.343204
28.260,834120,8.298303,4.333505,5.635951,0.063285,0.462579,-0.294175
28.280,834140,8.317456,4.223372,5.530606,0.003997,0.423009,-0.198381
28.300,834160,8.288726,4.146757,5.324705,-0.034107,0.360657,-0.103654
28.320,834180,8.049306,4.122815,5.262455,-0.050894,0.275922,-0.017187
28.340,834200,8.030152,4.141969,5.272032,-0.043700,0.204110,0.046098
28.360,834220,7.900866,4.118027,5.243302,-0.031176,0.160544,0.081804
28.380,834240,7.867347,4.132392,5.267244,-0.014256,0.119508,0.082070
28.400,834260,7.924808,4.132392,5.272032,0.002531,0.101789,0.059155
28.420,834280,7.872135,4.156334,5.324705,0.003597,0.088466,0.024115
28.440,834300,7.958326,4.151546,5.377377,-0.002798,0.078207,-0.023049
28.460,834320,8.130709,4.223372,5.358223,-0.014789,0.074476,-0.066216
28.480,834340,8.159439,4.285621,5.372589,-0.031043,0.059155,-0.114845
28.500,834360,8.121132,4.242526,5.353435,-0.051960,0.043034,-0.156680
28.520,834380,8.073248,4.247314,5.343858,-0.084335,0.031043,-0.168538
28.540,834400,8.130709,4.271256,5.310339,-0.122040,0.010126,-0.160677
28.560,834420,8.221688,4.323928,5.248090,-0.154815,-0.022250,-0.138560
28.580,834440,8.264784,4.367024,5.219360,-0.173734,-0.054758,-0.098724
28.600,834460,8.106767,4.314352,5.114015,-0.182527,-0.082737,-0.050894
28.620,834480,8.063671,4.347870,5.046977,-0.173467,-0.111381,0.001865
28.640,834500,7.987057,4.405331,5.137957,-0.154149,-0.123372,0.038770
28.660,834520,7.886500,4.429273,5.142745,-0.125770,-0.120841,0.050761
28.680,834540,7.876924,4.414908,5.152322,-0.102721,-0.111515,0.047564
28.700,834560,8.025364,4.410120,5.257667,-0.084868,-0.098991,0.049162
28.720,834580,8.092402,4.400543,5.310339,-0.080871,-0.082070,0.051161
28.740,834600,8.753201,4.596867,5.669470,-0.101389,-0.124571,0.042900
28.760,834620,10.419566,4.836287,5.707777,-0.104054,-0.170270,0.037305
28.780,834640,9.428367,4.256891,5.109226,-0.133098,-0.122573,0.125637
28.800,834660,8.930372,4.472369,5.329493,-0.129634,-0.247943,0.165340
28.820,834680,8.906430,4.515464,5.152322,-0.101123,-0.246211,0.137361
28.840,834700,8.461109,4.419696,5.372589,-0.097259,-0.240349,0.087533
28.860,834720,8.154651,4.261679,5.291186,-0.110315,-0.188389,0.036905
28.880,834740,7.824251,4.098873,5.300763,-0.157080,-0.134963,-0.004930
28.900,834760,8.039729,4.151546,5.329493,-0.203977,-0.099390,-0.051960
28.920,834780,8.030152,4.180276,5.272032,-0.251541,-0.055424,-0.088466
28.940,834800,8.020576,4.209007,5.267244,-0.279919,-0.055424,-0.118576
28.960,834820,7.785944,4.103662,5.214571,-0.302302,-0.056490,-0.148153
28.980,834840,7.326257,4.007894,5.114015,-0.312827,-0.085668,-0.155214
29.000,834860,7.307104,3.960010,5.219360,-0.313626,-0.133498,-0.161609
29.020,834880,7.790732,3.926491,5.252879,-0.313360,-0.178130,-0.142158
29.040,834900,7.829040,4.036624,5.367800,-0.320155,-0.192119,-0.098325
29.060,834920,7.699753,4.118027,5.497087,-0.309363,-0.186391,-0.092729
29.080,834940,7.829040,4.252102,5.588067,-0.297239,-0.156014,-0.109116
29.100,834960,7.891289,4.434062,5.861006,-0.281651,-0.098858,-0.153616
29.120,834980,7.833828,4.563348,6.114791,-0.272191,-0.001998,-0.218100
29.140,835000,7.872135,4.754885,6.349423,-0.266995,0.116577,-0.278187
29.160,835020,7.694964,4.683059,6.378153,-0.274590,0.237018,-0.327349
29.180,835040,7.996634,4.654328,6.028600,-0.259934,0.255138,-0.351464
29.200,835060,8.475474,4.462792,5.616797,-0.226093,0.192386,-0.294175
29.220,835080,8.183381,4.376601,5.559336,-0.202245,0.095527,-0.196916
29.240,835100,7.987057,4.189853,5.702989,-0.174400,0.020518,-0.136029
29.260,835120,7.867347,3.931279,5.602432,-0.177864,-0.018786,-0.072211
29.280,835140,7.905654,3.849876,5.473145,-0.186790,-0.051560,-0.011858
29.300,835160,7.785944,3.801992,5.516241,-0.193452,-0.068214,0.014389
29.320,835180,7.848193,3.801992,5.521029,-0.193185,-0.066083,0.024914
29.340,835200,8.054094,3.892972,5.482722,-0.183060,-0.052493,0.042368
29.360,835220,8.149862,3.945644,5.430049,-0.153083,-0.044632,0.040636
29.380,835240,8.125920,3.940856,5.425261,-0.116844,-0.031043,0.029977
29.400,835260,8.054094,3.940856,5.420473,-0.078207,-0.011191,0.018519
29.420,835280,8.044518,3.845088,5.377377,-0.039703,0.001332,-0.004530
29.440,835300,8.111555,3.744531,5.334281,-0.005995,-0.006662,-0.007461
29.460,835320,8.207323,3.643975,5.281609,0.007328,-0.025580,0.000799
29.480,835340,8.274361,3.648763,5.267244,0.008127,-0.063818,0.003198
29.500,835360,8.370130,3.643975,5.224148,-0.002398,-0.119908,0.001066
29.520,835380,8.350976,3.572149,5.128380,-0.021583,-0.169870,0.004397
29.540,835400,8.379706,3.552995,4.994305,-0.039170,-0.213703,0.024115
29.560,835420,8.336611,3.624821,4.912902,-0.046631,-0.243946,0.046897
29.580,835440,8.307879,3.667917,4.888960,-0.043433,-0.260334,0.065150
29.600,835460,8.259995,3.672705,4.893748,-0.038237,-0.267395,0.078074
29.620,835480,8.298303,3.734955,4.855441,-0.027046,-0.264198,0.095527
29.640,835500,8.341399,3.854665,4.989516,-0.020917,-0.242481,0.116044
29.660,835520,9.083601,4.304775,5.444415,-0.013590,-0.249542,0.112181
29.680,835540,10.582372,4.505888,5.554548,0.030910,-0.198381,0.108583
29.700,835560,9.605537,4.438850,5.458780,0.005462,-0.098058,0.162542
29.720,835580,10.113108,4.802769,5.631162,0.050761,-0.118176,0.130833
29.740,835600,9.447520,4.644751,5.664681,0.058755,-0.031309,0.079806
29.760,835620,9.026140,4.663905,5.659893,0.084202,0.009593,0.031975
29.780,835640,8.552089,4.505888,5.291186,0.083936,0.054492,-0.038637
29.800,835660,8.274361,4.228160,5.094861,0.081671,0.027979,-0.094061
29.820,835680,8.082825,3.859453,4.874595,0.047963,0.001599,-0.087799
29.840,835700,7.819463,3.782839,4.841076,-0.000933,-0.017587,-0.018786
29.860,835720,7.460332,3.816358,4.912902,-0.048096,-0.005729,0.050495
29.880,835740,7.182605,3.983952,4.850653,-0.075276,0.033574,0.093262
29.900,835760,6.885724,4.108450,4.836287,-0.073810,0.084735,0.104320
29.920,835780,6.919243,4.189853,4.898537,-0.047830,0.140026,0.096992
29.940,835800,6.924031,4.323928,4.979939,-0.026779,0.194518,0.076741
29.960,835820,7.326257,4.625597,5.090073,0.007461,0.214502,0.031309
29.980,835840,7.685388,4.721366,5.185841,0.051560,0.246078,-0.017587
30.000,835860,7.857770,4.783615,5.363012,0.078873,0.268328,-0.047297
30.020,835880,8.087613,4.936844,5.530606,0.099790,0.292975,-0.080605
30.040,835900,8.441956,5.090073,5.674258,0.110982,0.308031,-0.118176
30.060,835920,8.561666,5.023035,5.698200,0.106052,0.327083,-0.136828
30.080,835940,8.547300,4.855441,5.655105,0.076075,0.319489,-0.133764
30.100,835960,8.475474,4.721366,5.621585,0.035839,0.295773,-0.115645
30.120,835980,8.398860,4.568137,5.573701,-0.011058,0.277787,-0.080472
30.140,836000,8.054094,4.410120,5.492299,-0.058222,0.263398,-0.039836
30.160,836020,7.991845,4.247314,5.324705,-0.092995,0.227959,0.006129
30.180,836040,7.967903,4.156334,5.128380,-0.118576,0.191320,0.047564
30.200,836060,7.843405,4.118027,5.080496,-0.122173,0.156014,0.076208
30.220,836080,7.718906,4.007894,5.114015,-0.123905,0.139493,0.082470
30.240,836100,7.723695,3.960010,5.070919,-0.124971,0.134564,0.073544
30.260,836120,7.790732,3.993528,5.085284,-0.129101,0.124704,0.046498
30.280,836140,8.006210,3.950433,5.061342,-0.130300,0.114845,0.010525
30.300,836160,8.106767,4.003105,5.118803,-0.140825,0.110315,-0.015855
30.320,836180,8.140285,4.170700,5.262455,-0.138294,0.097925,-0.065816
30.340,836200,8.097190,4.151546,5.319916,-0.135763,0.092462,-0.129368
30.360,836220,8.049306,4.185065,5.358223,-0.151217,0.099390,-0.167072
30.380,836240,8.106767,4.266468,5.391742,-0.168671,0.108051,-0.197848
30.400,836260,8.125920,4.333505,5.343858,-0.187456,0.114579,-0.216501
30.420,836280,8.068460,4.304775,5.319916,-0.199847,0.115911,-0.205576
30.440,836300,8.078036,4.242526,5.248090,-0.202645,0.113913,-0.163075
30.460,836320,8.116343,4.309563,5.305551,-0.194917,0.106585,-0.104187
30.480,836340,8.034941,4.352659,5.276821,-0.170136,0.099657,-0.048629
30.500,836360,8.097190,4.362236,5.339070,-0.138161,0.080338,-0.005862
30.520,836380,8.212111,4.295198,5.305551,-0.109383,0.055957,0.026913
30.540,836400,8.231265,4.213795,5.310339,-0.088599,0.025714,0.064217
30.560,836420,8.130709,4.199430,5.425261,-0.074609,0.006262,0.082204
30.580,836440,8.130709,4.199430,5.516241,-0.067948,-0.016254,0.069946
30.600,836460,8.786720,4.453215,5.865794,-0.078473,-0.072345,0.032375
30.620,836480,9.979033,4.625597,5.889736,-0.084469,-0.107118,0.001599
30.640,836500,8.580819,4.175488,5.621585,-0.130167,-0.037438,0.050894
30.660,836520,7.848193,4.367024,5.942409,-0.165473,-0.095127,0.049162
30.680,836540,8.192958,4.525041,5.846641,-0.157879,-0.068081,-0.002531
30.700,836560,7.704541,4.616021,6.019023,-0.175332,-0.040636,-0.029844
30.720,836580,8.164227,4.740520,6.133945,-0.165606,-0.062086,-0.070346
30.740,836600,8.485051,4.529830,6.042965,-0.182260,-0.065550,-0.061153
30.760,836620,8.643068,4.544195,6.129156,-0.200646,-0.112447,-0.005063
30.780,836640,8.590396,4.697424,6.186617,-0.213303,-0.153882,0.019052
30.800,836660,8.250419,4.797980,6.162675,-0.205176,-0.170003,-0.008793
30.820,836680,7.651869,4.601655,6.124368,-0.176665,-0.165207,-0.067282
30.840,836700,7.144298,4.261679,6.033388,-0.183193,-0.146288,-0.107917
30.860,836720,6.981492,3.821146,5.659893,-0.198781,-0.152816,-0.114446
30.880,836740,7.445967,3.624821,5.449203,-0.230224,-0.232222,-0.071812
30.900,836760,7.709330,3.763685,5.506664,-0.270726,-0.281118,-0.018786
30.920,836780,7.244854,3.840300,5.621585,-0.284982,-0.255005,-0.016254
30.940,836800,7.091625,3.907337,5.588067,-0.288979,-0.205709,-0.052760
30.960,836820,7.311892,4.012682,5.664681,-0.282583,-0.155614,-0.125371
30.980,836840,7.580042,4.194642,5.884948,-0.281251,-0.076208,-0.201046
31.000,836860,7.465121,4.395754,6.167464,-0.293508,0.056357,-0.262732
31.020,836880,7.436390,4.558560,6.205771,-0.292443,0.166006,-0.336542
31.040,836900,7.584831,4.491522,6.052542,-0.290844,0.226626,-0.391567
31.060,836920,7.967903,4.395754,5.784391,-0.272858,0.227559,-0.365587
31.080,836940,7.972692,4.376601,5.861006,-0.253939,0.191054,-0.272325
31.100,836960,7.757214,4.405331,5.961562,-0.221963,0.151750,-0.193319
31.120,836980,7.661446,4.309563,5.913678,-0.189055,0.119908,-0.128302
31.140,837000,7.733272,4.343082,5.889736,-0.144689,0.079806,-0.075809
31.160,837020,7.762002,4.237737,5.861006,-0.094594,0.056890,-0.039969
31.180,837040,7.694964,4.146757,5.928043,-0.060887,0.050761,0.002531
31.200,837060,7.814674,4.113238,5.980716,-0.027312,0.063418,0.035040
31.220,837080,7.924808,4.022259,5.947197,-0.003064,0.077008,0.052093
31.240,837100,7.972692,3.950433,5.947197,0.016254,0.083802,0.067415
31.260,837120,7.943961,3.825934,5.923255,0.032508,0.088199,0.082737
31.280,837140,7.891289,3.778050,5.971139,0.044766,0.081538,0.082870
31.300,837160,7.963115,3.763685,5.937620,0.051960,0.075409,0.073410
31.320,837180,7.948750,3.643975,5.937620,0.045565,0.053559,0.062219
31.340,837200,7.953538,3.548207,5.875371,0.030643,0.014655,0.049962
31.360,837220,8.159439,3.548207,5.822699,0.010525,-0.047697,0.032109
31.380,837240,8.274361,3.471592,5.722142,-0.013190,-0.100723,0.030510
31.400,837260,8.169016,3.481169,5.679047,-0.041701,-0.153349,0.032375
31.420,837280,8.082825,3.548207,5.679047,-0.063152,-0.187856,0.021850
31.440,837300,8.015787,3.634398,5.635951,-0.085934,-0.202778,0.003730
31.460,837320,7.982268,3.648763,5.597643,-0.098458,-0.207175,-0.014256
31.480,837340,7.977480,3.687071,5.578490,-0.107518,-0.208507,-0.021983
31.500,837360,7.900866,3.811569,5.750873,-0.115378,-0.188389,-0.019718
31.520,837380,9.050082,4.252102,6.066907,-0.102455,-0.214636,-0.025980
31.540,837400,9.567230,4.185065,5.808333,-0.069547,-0.170136,0.003331
31.560,837420,9.040505,4.319140,5.975927,-0.054625,-0.173334,0.041435
31.580,837440,9.495404,4.525041,5.947197,0.010392,-0.178663,0.018119
31.600,837460,8.834604,4.515464,6.138733,0.031842,-0.135496,-0.033441
31.620,837480,8.552089,4.362236,6.023811,0.081671,-0.132299,-0.111381
31.640,837500,8.207323,4.137180,5.722142,0.096193,-0.133631,-0.172401
31.660,837520,8.020576,4.103662,5.573701,0.112847,-0.170403,-0.205043
31.680,837540,7.637504,4.199430,5.492299,0.110848,-0.174000,-0.218766
31.700,837560,7.201759,4.357447,5.477933,0.103521,-0.147753,-0.215435
31.720,837580,6.991069,4.448427,5.401319,0.088066,-0.102055,-0.205043
31.740,837600,6.924031,4.558560,5.233725,0.073277,-0.047963,-0.168937
31.760,837620,6.866570,4.721366,5.056554,0.067548,0.000799,-0.117776
31.780,837640,6.665458,4.936844,4.970363,0.078740,0.028511,-0.079806
31.800,837660,6.698977,5.161899,4.908113,0.103787,0.042101,-0.071145
31.820,837680,7.067683,5.410896,4.936844,0.135363,0.056890,-0.070879
31.840,837700,7.216124,5.602432,5.070919,0.159345,0.088066,-0.073277
31.860,837720,7.445967,5.822699,5.243302,0.178530,0.125770,-0.097925
31.880,837740,7.752425,5.966351,5.372589,0.177331,0.162809,-0.131499
31.900,837760,7.939173,5.928043,5.434838,0.154681,0.212770,-0.141225
31.920,837780,7.910442,5.793968,5.487510,0.107784,0.247144,-0.135230
31.940,837800,8.001422,5.612009,5.458780,0.049695,0.256337,-0.114312
31.960,837820,7.805098,5.382165,5.305551,-0.005729,0.259668,-0.062619
31.980,837840,7.594408,5.238513,5.238513,-0.054758,0.237418,0.005862
32.000,837860,7.565677,5.046977,5.075707,-0.081538,0.207175,0.083669
32.020,837880,7.455544,4.917690,4.994305,-0.088599,0.181861,0.163874
32.040,837900,7.469909,4.807557,4.903325,-0.077008,0.160943,0.231289
32.060,837920,7.378930,4.673482,4.984728,-0.067948,0.155747,0.254338
32.080,837940,7.402872,4.663905,5.046977,-0.061020,0.152150,0.232355
32.100,837960,7.422025,4.639963,5.166687,-0.062885,0.161210,0.174400
32.120,837980,7.589619,4.563348,5.228937,-0.078740,0.160410,0.116977
32.140,838000,7.862558,4.572925,5.166687,-0.105652,0.139893,0.072211
32.160,838020,8.154651,4.635174,5.195418,-0.118975,0.099524,0.042234
32.180,838040,8.307879,4.625597,5.248090,-0.130966,0.055557,0.023182
32.200,838060,8.293514,4.505888,5.171476,-0.149219,0.018786,0.039836
32.220,838080,8.192958,4.553771,5.185841,-0.168271,-0.027312,0.049429
32.240,838100,8.082825,4.525041,5.123591,-0.177597,-0.066216,0.043433
32.260,838120,8.082825,4.462792,5.070919,-0.178796,-0.080871,0.058089
32.280,838140,7.915231,4.333505,5.003881,-0.190254,-0.085002,0.094328
32.300,838160,7.948750,4.343082,4.970363,-0.199580,-0.106052,0.116311
32.320,838180,8.010999,4.309563,4.927267,-0.202778,-0.112181,0.134297
32.340,838200,7.905654,4.304775,4.941632,-0.207574,-0.122440,0.155348
32.360,838220,7.934384,4.352659,5.046977,-0.201579,-0.129900,0.168005
32.380,838240,8.044518,4.419696,5.118803,-0.185991,-0.122173,0.168271
32.400,838260,8.101978,4.486734,5.291186,-0.176798,-0.134697,0.160943
32.420,838280,9.787497,5.018247,5.774815,-0.171202,-0.227692,0.123106
32.440,838300,10.151415,4.534618,5.080496,-0.150018,-0.177864,0.152550
32.460,838320,8.331821,4.357447,5.204995,-0.178663,-0.228492,0.237152
32.480,838340,8.671799,4.405331,5.147533,-0.124172,-0.303234,0.179862
32.500,838360,8.777143,4.189853,5.066131,-0.124838,-0.334277,0.118709
32.520,838380,8.576031,4.194642,5.195418,-0.134164,-0.341871,0.105919
32.540,838400,8.370130,4.146757,5.300763,-0.167871,-0.311761,0.081005
32.560,838420,8.465898,4.256891,5.339070,-0.198914,-0.280185,0.053559
32.580,838440,8.599973,4.362236,5.286397,-0.206908,-0.242747,0.022783
32.600,838460,8.202535,4.467580,5.343858,-0.212104,-0.190254,-0.017187
32.620,838480,7.383718,4.362236,5.497087,-0.213703,-0.103387,-0.090997
32.640,838500,6.981492,4.022259,5.506664,-0.223695,-0.037571,-0.146821
32.660,838520,7.647080,3.821146,5.501875,-0.236752,-0.022383,-0.148286
32.680,838540,8.307879,3.873818,5.463568,-0.261400,-0.026247,-0.086867
32.700,838560,8.303091,3.964798,5.588067,-0.264464,-0.031842,-0.029311
32.720,838580,8.116343,4.022259,5.750873,-0.266995,-0.041302,-0.000266
32.740,838600,8.451532,4.175488,5.875371,-0.258469,-0.028778,0.013723
32.760,838620,8.360553,4.347870,6.028600,-0.250874,0.020784,0.003597
32.780,838640,8.010999,4.376601,6.086061,-0.233954,0.089798,-0.029311
32.800,838660,7.934384,4.333505,5.966351,-0.207041,0.134564,-0.077541
32.820,838680,8.236053,4.161122,5.674258,-0.164541,0.135230,-0.102455
32.840,838700,8.192958,4.070143,5.410896,-0.129234,0.097259,-0.098858
32.860,838720,8.283937,3.974375,5.377377,-0.077141,0.017320,-0.099790
32.880,838740,8.173804,3.715801,5.329493,-0.053559,-0.029977,-0.081271
32.900,838760,7.987057,3.615245,5.363012,-0.067415,-0.059421,-0.047297
32.920,838780,7.886500,3.624821,5.286397,-0.089798,-0.081138,-0.045432
32.940,838800,7.833828,3.715801,5.339070,-0.113247,-0.080871,-0.062352
32.960,838820,8.044518,3.792415,5.319916,-0.128435,-0.069946,-0.064617
32.980,838840,8.192958,3.778050,5.262455,-0.138427,-0.048763,-0.054492
33.000,838860,8.379706,3.830723,5.224148,-0.138960,-0.045299,-0.039170
33.020,838880,8.441956,3.835511,5.137957,-0.131499,-0.036239,-0.021717
33.040,838900,8.360553,3.835511,5.128380,-0.115112,-0.031709,-0.012524
33.060,838920,8.432379,3.744531,5.090073,-0.104054,-0.035972,-0.008793
33.080,838940,8.537724,3.581726,4.984728,-0.108184,-0.050894,0.010792
33.100,838960,8.609550,3.519476,4.855441,-0.119508,-0.076208,0.028378
33.120,838980,8.494628,3.490746,4.826711,-0.132299,-0.101389,0.042101
33.140,839000,8.365341,3.505111,4.807557,-0.133364,-0.105519,0.051560
33.160,839020,8.212111,3.509900,4.874595,-0.132032,-0.095127,0.049828
33.180,839040,8.307879,3.610456,4.898537,-0.127769,-0.076741,0.029178
33.200,839060,8.293514,3.605668,4.874595,-0.119242,-0.058222,0.008926
33.220,839080,8.355764,3.615245,4.874595,-0.111515,-0.059421,-0.001998
33.240,839100,8.571242,3.634398,4.903325,-0.102988,-0.074876,0.004530
33.260,839120,8.461109,3.591303,4.912902,-0.093528,-0.075942,0.031576
33.280,839140,8.269572,3.552995,4.979939,-0.080738,-0.070613,0.068481
33.300,839160,8.384495,3.763685,5.257667,-0.074476,-0.057689,0.092729
33.320,839180,10.165780,4.295198,5.655105,-0.051427,-0.119109,0.090864
33.340,839200,10.328587,4.027047,5.099649,-0.016787,-0.054891,0.150018
33.360,839220,9.117120,4.362236,5.760449,-0.035839,-0.093129,0.168404
33.380,839240,9.658210,4.481946,5.760449,0.025047,-0.048896,0.093795
33.400,839260,9.069236,4.338294,5.784391,0.000666,0.034773,0.047164
33.420,839280,8.892065,4.237737,5.573701,0.011058,0.053825,0.015055
33.440,839300,8.571242,3.988740,5.291186,-0.010792,0.069946,-0.006662
33.460,839320,8.355764,3.830723,5.152322,-0.028378,0.053692,0.015055
33.480,839340,8.140285,3.845088,5.070919,-0.046897,0.054092,0.057556
33.500,839360,7.809886,3.859453,4.984728,-0.046498,0.052093,0.082603
33.520,839380,7.536947,3.749320,4.941632,-0.040769,0.055691,0.106185
33.540,839400,7.388506,3.720589,4.874595,-0.039303,0.079939,0.150285
33.560,839420,7.163452,3.801992,4.807557,-0.030110,0.114312,0.164674
33.580,839440,7.465121,3.945644,4.845864,0.009593,0.117910,0.144023
33.600,839460,7.757214,4.074931,4.936844,0.043833,0.153083,0.128835
33.620,839480,7.881712,4.175488,5.133168,0.079539,0.171469,0.093928
33.640,839500,8.322245,4.328717,5.243302,0.113646,0.192253,0.036505
33.660,839520,8.427590,4.462792,5.453991,0.129501,0.225827,-0.023982
33.680,839540,8.398860,4.606444,5.726931,0.136695,0.277254,-0.098591
33.700,839560,8.465898,4.630386,5.817910,0.122040,0.326150,-0.174266
33.720,839580,8.561666,4.419696,5.731719,0.085801,0.356127,-0.203711
33.740,839600,8.638280,4.266468,5.592855,0.038770,0.339340,-0.175732
33.760,839620,8.633492,4.132392,5.430049,0.001066,0.293775,-0.104853
33.780,839640,8.259995,4.007894,5.281609,-0.033708,0.241681,-0.018652
33.800,839660,8.078036,3.931279,5.152322,-0.046364,0.188522,0.043833
33.820,839680,7.953538,3.955221,5.099649,-0.042501,0.158945,0.072877
33.840,839700,7.862558,3.806781,5.104438,-0.030243,0.153749,0.084735
33.860,839720,8.073248,3.749320,5.099649,-0.024248,0.150951,0.093262
33.880,839740,8.240842,3.782839,5.109226,-0.016787,0.152550,0.081937
33.900,839760,8.236053,3.854665,5.185841,-0.013323,0.149485,0.037704
33.920,839780,8.317456,3.806781,5.243302,-0.012124,0.148553,-0.009992
33.940,839800,8.255207,3.754108,5.324705,-0.029977,0.149086,-0.046098
33.960,839820,8.317456,3.792415,5.334281,-0.054492,0.150951,-0.069680
33.980,839840,8.283937,3.806781,5.315128,-0.078873,0.154548,-0.082737
34.000,839860,8.269572,3.821146,5.353435,-0.097392,0.144689,-0.092196
34.020,839880,8.403648,3.830723,5.324705,-0.108184,0.116444,-0.086600
34.040,839900,8.379706,3.787627,5.286397,-0.118309,0.085135,-0.058888
34.060,839920,8.422802,3.730166,5.228937,-0.120974,0.039836,-0.016254
34.080,839940,8.365341,3.744531,5.176264,-0.121507,-0.004130,0.023182
34.100,839960,8.346188,3.734955,5.200206,-0.115911,-0.044100,0.045299
34.120,839980,8.422802,3.749320,5.147533,-0.110049,-0.069946,0.074876
34.140,840000,8.236053,3.787627,5.238513,-0.109250,-0.081538,0.075675
34.160,840020,8.197746,3.778050,5.339070,-0.106052,-0.097259,0.051294
34.180,840040,8.805874,3.988740,5.573701,-0.121907,-0.132165,0.038371
34.200,840060,10.424355,4.419696,5.631162,-0.104187,-0.182127,0.029311
34.220,840080,9.337387,4.060566,5.214571,-0.104587,-0.119908,0.057822
34.240,840100,8.408437,4.060566,5.521029,-0.110449,-0.182394,0.055824
34.260,840120,8.633492,4.089296,5.477933,-0.088332,-0.148686,0.032775
34.280,840140,8.647857,4.213795,5.717354,-0.094328,-0.112047,-0.000266
34.300,840160,8.695741,4.103662,5.674258,-0.102855,-0.083669,-0.023449
34.320,840180,8.552089,4.074931,5.702989,-0.146821,-0.073410,-0.016121
34.340,840200,8.815451,4.170700,5.808333,-0.159877,-0.077807,-0.013323
34.360,840220,8.896853,4.228160,5.736507,-0.172534,-0.072877,-0.013856
34.380,840240,8.590396,4.242526,5.774815,-0.166806,-0.087799,-0.041168
34.400,840260,8.121132,4.074931,5.750873,-0.169204,-0.090198,-0.097525
34.420,840280,7.565677,3.845088,5.722142,-0.187989,-0.079273,-0.150152
34.440,840300,7.134721,3.634398,5.616797,-0.216501,-0.075276,-0.184658
34.460,840320,7.426814,3.514688,5.430049,-0.243547,-0.121240,-0.199447
34.480,840340,7.718906,3.576937,5.410896,-0.272058,-0.161476,-0.184392
