Time(s),Time(ms),AccelX,AccelY,AccelZ,GyroX,GyroY,GyroZ
0.000,648820,7.785944,5.214571,7.891289,0.291910,0.174266,0.139626
0.020,648840,8.920795,5.276821,7.891289,0.306299,0.154948,0.119775
0.040,648860,7.680599,4.860229,7.053318,0.270193,0.223962,0.188522
0.060,648880,7.532158,5.166687,7.206547,0.268594,0.075809,0.216501
0.080,648900,7.618350,5.066131,6.947973,0.277920,0.065283,0.196250
0.100,648920,7.493851,5.147533,6.828263,0.259002,0.044499,0.188655
0.120,648940,7.048530,5.181053,6.675035,0.237152,0.029044,0.168138
0.140,648960,6.789956,5.152322,6.397307,0.217833,0.005329,0.118975
0.160,648980,6.631939,4.989516,6.062119,0.187590,-0.012391,0.081271
0.180,649000,6.584054,4.754885,5.698200,0.154015,-0.056623,0.083403
0.200,649020,6.517017,4.572925,5.415684,0.109916,-0.086067,0.141625
0.220,649040,6.315904,4.644751,5.262455,0.073544,-0.081937,0.217433
0.240,649060,6.186617,5.051765,5.386954,0.066482,-0.021184,0.236086
0.260,649080,6.086061,5.468357,5.559336,0.092462,0.100456,0.189721
0.280,649100,6.143522,5.813122,5.755661,0.127369,0.236885,0.096726
0.300,649120,6.368577,6.038177,5.937620,0.172401,0.364387,-0.018119
0.320,649140,6.540959,6.138733,6.172252,0.203844,0.477368,-0.115112
0.340,649160,6.344635,6.186617,6.512228,0.217833,0.591280,-0.180395
0.360,649180,6.311116,6.105214,6.780379,0.209839,0.675216,-0.234487
0.380,649200,6.488286,5.693412,6.675035,0.180262,0.717184,-0.233155
0.400,649220,6.775591,5.295974,6.493075,0.116044,0.669087,-0.133764
0.420,649240,6.737284,5.204995,6.478710,0.039303,0.563302,0.006928
0.440,649260,6.430826,5.209783,6.540959,-0.021850,0.468175,0.107651
0.460,649280,6.268020,5.343858,6.540959,-0.046498,0.388236,0.152283
0.480,649300,6.153099,5.458780,6.517017,-0.043966,0.326816,0.132698
0.500,649320,6.244078,5.645528,6.526594,-0.015322,0.241548,0.061420
0.520,649340,6.368577,5.540183,6.636727,0.011591,0.177597,-0.011724
0.540,649360,6.598420,5.449203,6.593631,-0.006262,0.133098,-0.034507
0.560,649380,6.756437,5.468357,6.469133,-0.027845,0.081671,-0.041035
0.580,649400,6.622362,5.559336,6.335058,-0.036239,0.023449,-0.053159
0.600,649420,6.196194,5.621585,6.339846,-0.045299,-0.013590,-0.085401
0.620,649440,5.951985,5.597643,6.359000,-0.053959,-0.022516,-0.132698
0.640,649460,5.947197,5.382165,6.363788,-0.074609,-0.021850,-0.149619
0.660,649480,6.143522,5.219360,6.258443,-0.121374,-0.028112,-0.118576
0.680,649500,6.291962,5.118803,6.124368,-0.174133,-0.068614,-0.069946
0.700,649520,6.033388,5.248090,6.133945,-0.221963,-0.122040,-0.042234
0.720,649540,5.875371,5.458780,6.320693,-0.245412,-0.162675,-0.055158
0.740,649560,6.028600,5.631162,6.473921,-0.249009,-0.182127,-0.097525
0.760,649580,6.229713,5.669470,6.631939,-0.255671,-0.192519,-0.131100
0.780,649600,6.943185,6.205771,7.316680,-0.268461,-0.257403,-0.156014
0.800,649620,8.197746,6.478710,7.536947,-0.274723,-0.249942,-0.201979
0.820,649640,7.321469,6.119579,7.316680,-0.304567,-0.212104,-0.199047
0.840,649660,7.297527,5.985504,7.536947,-0.321887,-0.287646,-0.182793
0.860,649680,6.904878,5.497087,7.268796,-0.368251,-0.264597,-0.135763
0.880,649700,6.660669,5.161899,7.129933,-0.421943,-0.330547,-0.074609
0.900,649720,6.636727,4.769250,6.928820,-0.478433,-0.376112,-0.011591
0.920,649740,6.607996,4.568137,6.828263,-0.529861,-0.409153,0.061153
0.940,649760,6.402095,4.438850,6.804321,-0.554242,-0.414616,0.113113
0.960,649780,6.411672,4.362236,6.689400,-0.546115,-0.412484,0.112580
0.980,649800,6.421249,4.247314,6.598420,-0.521334,-0.411685,0.075542
1.000,649820,6.133945,4.118027,6.483498,-0.490691,-0.409953,0.002665
1.020,649840,5.971139,4.146757,6.627151,-0.461513,-0.429138,-0.099524
1.040,649860,6.110003,4.146757,6.924031,-0.431802,-0.407288,-0.212770
1.060,649880,6.153099,4.156334,7.345411,-0.433668,-0.337208,-0.305366
1.080,649900,6.248867,4.170700,7.503428,-0.456450,-0.247011,-0.356660
1.100,649920,6.440403,4.271256,7.556100,-0.471505,-0.153216,-0.371582
1.120,649940,6.770802,4.525041,7.594408,-0.466309,-0.102188,-0.382773
1.140,649960,6.789956,4.568137,7.714118,-0.439397,-0.058622,-0.392499
1.160,649980,6.521805,4.611232,7.771579,-0.420211,-0.014256,-0.375179
1.180,650000,6.368577,4.434062,7.666234,-0.387969,0.010126,-0.344669
1.200,650020,6.402095,4.285621,7.398083,-0.362389,-0.002398,-0.304966
1.220,650040,6.770802,4.328717,7.110779,-0.322020,-0.061553,-0.268461
1.240,650060,6.842628,4.400543,7.005434,-0.260201,-0.105386,-0.241415
1.260,650080,6.651093,4.343082,7.096414,-0.213436,-0.132432,-0.208773
1.280,650100,6.430826,4.127604,7.110779,-0.182660,-0.106851,-0.176531
1.300,650120,6.536170,4.252102,7.110779,-0.170536,-0.061819,-0.150152
1.320,650140,6.890512,4.481946,7.015011,-0.166139,-0.043300,-0.138028
1.340,650160,7.000646,4.783615,7.115568,-0.125904,-0.031309,-0.149752
1.360,650180,7.029376,4.707001,7.072472,-0.068481,-0.014123,-0.151884
1.380,650200,6.761226,4.568137,7.139510,-0.041168,0.008793,-0.139093
1.400,650220,6.651093,4.405331,7.168240,-0.039037,0.024781,-0.092995
1.420,650240,6.627151,4.280833,7.058106,-0.033708,0.053292,-0.023182
1.440,650260,6.478710,4.367024,7.010222,-0.044366,0.061819,0.036239
1.460,650280,6.406884,4.290410,6.856994,-0.027312,0.047697,0.058622
1.480,650300,6.224925,4.137180,6.818686,-0.004930,0.027712,0.080338
1.500,650320,6.200983,4.194642,6.957550,0.011991,-0.000666,0.105519
1.520,650340,6.430826,4.285621,6.924031,0.023049,-0.000400,0.129767
1.540,650360,6.588843,4.295198,6.813898,0.033974,-0.027579,0.161743
1.560,650380,6.770802,4.501099,6.809110,0.041568,-0.064484,0.196516
1.580,650400,6.909666,4.888960,7.254431,0.055158,-0.091397,0.211838
1.600,650420,7.915231,5.209783,7.757214,0.077008,-0.069946,0.189721
1.620,650440,7.704541,4.860229,7.311892,0.074609,0.039037,0.221963
1.640,650460,7.129933,4.888960,7.249643,0.040236,0.033841,0.276455
1.660,650480,7.010222,4.917690,6.995857,0.049828,0.053559,0.262199
1.680,650500,6.818686,4.936844,6.904878,0.054625,0.029311,0.234087
1.700,650520,6.852205,4.917690,6.847417,0.074210,0.009859,0.200513
1.720,650540,7.182605,4.884171,6.675035,0.073943,-0.014256,0.184259
1.740,650560,7.254431,4.855441,6.617573,0.078207,-0.043034,0.189188
1.760,650580,6.991069,4.692636,6.445191,0.086734,-0.056757,0.204110
1.780,650600,6.660669,4.568137,6.277597,0.076075,-0.051294,0.221430
1.800,650620,6.325481,4.414908,5.999869,0.048896,-0.025580,0.238484
1.820,650640,6.234501,4.438850,5.760449,0.025714,-0.022250,0.249276
1.840,650660,6.473921,4.735731,5.846641,0.041701,-0.022116,0.236885
1.860,650680,6.698977,5.008670,6.062119,0.071678,0.043167,0.195051
1.880,650700,6.493075,5.085284,6.253655,0.087266,0.151884,0.138427
1.900,650720,6.689400,5.209783,6.411672,0.104853,0.241149,0.069680
1.920,650740,6.938396,5.420473,6.641516,0.117776,0.328015,0.001066
1.940,650760,6.847417,5.544971,6.876147,0.128035,0.409286,-0.051694
1.960,650780,7.005434,5.391742,7.010222,0.128035,0.441528,-0.080871
1.980,650800,7.603985,5.066131,6.794744,0.113513,0.421810,-0.035173
2.000,650820,7.776367,4.707001,6.545747,0.082603,0.317224,0.089265
2.020,650840,7.584831,4.486734,6.421249,0.055691,0.186391,0.216501
2.040,650860,7.297527,4.319140,6.349423,0.032109,0.075142,0.289112
2.060,650880,7.062895,4.290410,6.268020,0.006262,0.000000,0.308697
2.080,650900,7.024588,4.295198,6.191406,-0.010392,-0.056357,0.280452
2.100,650920,7.029376,4.285621,6.066907,-0.020118,-0.083136,0.227292
2.120,650940,6.928820,4.295198,6.071695,-0.030243,-0.102855,0.160943
2.140,650960,6.928820,4.410120,6.062119,-0.036772,-0.113247,0.076208
2.160,650980,7.086837,4.520253,6.114791,-0.042234,-0.125371,-0.009726
2.180,651000,7.268796,4.501099,6.033388,-0.056357,-0.135763,-0.077141
2.200,651020,7.326257,4.429273,5.894525,-0.079939,-0.164807,-0.100190
2.220,651040,7.364564,4.453215,5.793968,-0.104187,-0.213436,-0.089931
2.240,651060,7.144298,4.496311,5.746084,-0.125504,-0.252073,-0.080605
2.260,651080,6.947973,4.582502,5.851429,-0.155614,-0.282051,-0.079406
2.280,651100,7.082048,4.707001,5.923255,-0.190121,-0.291243,-0.079406
2.300,651120,6.986280,4.740520,5.956774,-0.227692,-0.277254,-0.067548
2.320,651140,7.053318,4.917690,6.133945,-0.259135,-0.274590,-0.059288
2.340,651160,8.020576,5.530606,6.766014,-0.283116,-0.297505,-0.076075
2.360,651180,9.026140,5.755661,7.125144,-0.278453,-0.227825,-0.119642
2.380,651200,8.604761,5.712565,7.244854,-0.291110,-0.187590,-0.124838
2.400,651220,8.547300,5.511452,7.316680,-0.291243,-0.151351,-0.108983
2.420,651240,7.829040,5.190629,7.129933,-0.307897,-0.114446,-0.086600
2.440,651260,7.398083,4.936844,6.981492,-0.314426,-0.124172,-0.058888
2.460,651280,7.067683,4.616021,6.655881,-0.317890,-0.138960,-0.005462
2.480,651300,7.005434,4.309563,6.330269,-0.310429,-0.194251,0.069813
2.500,651320,6.813898,4.046201,5.942409,-0.296306,-0.255671,0.138560
2.520,651340,6.660669,3.883395,5.813122,-0.274456,-0.335476,0.168937
2.540,651360,6.651093,3.653552,5.736507,-0.250741,-0.385838,0.142557
2.560,651380,6.612785,3.495534,5.932832,-0.235286,-0.394498,0.081671
2.580,651400,6.454768,3.447650,6.133945,-0.236352,-0.340806,0.003997
2.600,651420,6.689400,3.672705,6.411672,-0.243680,-0.246345,-0.076342
2.620,651440,6.684611,3.950433,6.818686,-0.286447,-0.124838,-0.183992
2.640,651460,6.986280,4.180276,7.125144,-0.299237,0.000400,-0.299770
2.660,651480,7.029376,4.395754,7.513005,-0.337608,0.152550,-0.388502
2.680,651500,7.216124,4.659117,7.718906,-0.359991,0.261933,-0.443260
2.700,651520,7.527370,4.750096,7.599196,-0.372781,0.312294,-0.452587
2.720,651540,7.867347,4.616021,7.144298,-0.342005,0.279386,-0.408487
2.740,651560,7.781156,4.458004,6.718130,-0.309763,0.142158,-0.304433
2.760,651580,7.580042,4.333505,6.564901,-0.247144,0.000799,-0.205976
2.780,651600,7.091625,4.228160,6.804321,-0.187456,-0.098858,-0.144689
2.800,651620,6.823475,4.017470,6.435614,-0.155881,-0.151750,-0.103654
2.820,651640,6.804321,3.840300,6.359000,-0.150685,-0.155747,-0.079939
2.840,651660,6.770802,3.763685,6.497863,-0.159478,-0.148553,-0.083802
2.860,651680,6.914454,3.672705,6.540959,-0.178530,-0.114979,-0.099524
2.880,651700,7.010222,3.701436,6.718130,-0.208640,-0.085135,-0.093795
2.900,651720,6.986280,3.821146,6.818686,-0.215835,-0.047564,-0.076342
2.920,651740,6.876147,4.031836,6.943185,-0.217700,0.069680,-0.093662
2.940,651760,7.096414,3.816358,6.751649,-0.156413,0.133231,-0.076208
2.960,651780,7.230489,3.897760,6.708553,-0.121640,0.155614,-0.057423
2.980,651800,7.105990,3.998317,6.804321,-0.042634,0.158279,-0.029577
3.000,651820,6.981492,3.926491,6.737284,-0.054358,0.161743,-0.015988
3.020,651840,7.292738,3.797204,6.291962,0.028911,0.103654,0.061153
3.040,651860,7.426814,3.916914,6.694188,0.070746,0.051427,0.129234
3.060,651880,7.082048,4.003105,6.924031,0.088199,0.021184,0.168271
3.080,651900,6.689400,4.079720,7.029376,0.084868,0.017720,0.171735
3.100,651920,6.722919,4.113238,6.890512,0.095127,0.036505,0.153482
3.120,651940,6.924031,4.228160,6.780379,0.094328,0.052893,0.158012
3.140,651960,7.790732,4.836287,7.249643,0.093395,0.032508,0.132832
3.160,651980,9.002198,4.601655,7.158663,0.124438,0.115112,0.134830
3.180,652000,7.929596,4.520253,6.751649,0.067282,0.172934,0.228758
3.200,652020,8.125920,4.979939,7.105990,0.062219,0.126037,0.252606
3.220,652040,8.082825,5.099649,6.991069,0.086201,0.178796,0.235286
3.240,652060,7.757214,4.941632,7.072472,0.103787,0.157746,0.237685
3.260,652080,7.158663,4.678270,6.804321,0.133764,0.108184,0.231023
3.280,652100,7.072472,4.558560,6.598420,0.136695,0.069813,0.208773
3.300,652120,6.967127,4.386178,6.354211,0.125904,0.056757,0.201446
3.320,652140,6.560112,4.237737,6.239290,0.110315,0.034374,0.231956
3.340,652160,6.603208,4.089296,6.253655,0.080338,0.035573,0.270992
3.360,652180,6.799533,4.098873,5.956774,0.057556,0.062619,0.307231
3.380,652200,6.761226,4.199430,5.789180,0.057956,0.039037,0.335476
3.400,652220,7.024588,4.400543,6.033388,0.086734,0.029311,0.323885
3.420,652240,7.192182,4.529830,6.205771,0.114179,0.065550,0.277254
3.440,652260,7.144298,4.697424,6.349423,0.140692,0.112980,0.205443
3.460,652280,7.364564,4.850653,6.545747,0.164274,0.161609,0.114312
3.480,652300,7.474698,4.989516,6.794744,0.185858,0.217966,0.009193
3.500,652320,7.589619,4.936844,6.928820,0.186391,0.271259,-0.089798
3.520,652340,7.422025,4.726154,6.852205,0.158545,0.314959,-0.150951
3.540,652360,7.383718,4.462792,6.660669,0.104986,0.319355,-0.158945
3.560,652380,7.412448,4.079720,6.440403,0.041435,0.282850,-0.117243
3.580,652400,7.551312,3.936068,6.287174,-0.035573,0.209306,-0.029977
3.600,652420,7.402872,3.988740,6.244078,-0.087400,0.122173,0.042900
3.620,652440,7.211336,4.036624,6.162675,-0.110182,0.046098,0.064351
3.640,652460,7.240066,4.036624,6.253655,-0.131366,-0.000666,0.057289
3.660,652480,7.067683,4.055778,6.210559,-0.140692,0.005995,0.051294
3.680,652500,6.995857,4.185065,6.263232,-0.141758,-0.002265,0.015855
3.700,652520,7.067683,4.328717,6.320693,-0.129101,0.008926,-0.047564
3.720,652540,7.254431,4.395754,6.306327,-0.112714,0.006395,-0.099657
3.740,652560,7.479486,4.390966,6.311116,-0.092329,-0.015055,-0.140692
3.760,652580,7.479486,4.328717,6.291962,-0.094461,-0.038770,-0.149485
3.780,652600,7.316680,4.319140,6.186617,-0.128568,-0.063551,-0.140426
3.800,652620,7.302315,4.319140,6.148310,-0.150152,-0.090997,-0.124971
3.820,652640,7.264008,4.319140,6.105214,-0.192253,-0.112314,-0.096726
3.840,652660,7.278373,4.280833,5.928043,-0.188389,-0.136695,-0.048230
3.860,652680,7.216124,4.314352,5.985504,-0.176531,-0.165606,-0.012790
3.880,652700,7.173028,4.390966,6.042965,-0.187856,-0.175199,0.007461
3.900,652720,7.383718,4.453215,6.105214,-0.183459,-0.180528,0.016654
3.920,652740,7.556100,4.458004,6.277597,-0.172668,-0.182127,0.017587
3.940,652760,7.876924,4.788404,6.775591,-0.180395,-0.199181,-0.004930
3.960,652780,8.858546,5.118803,7.220912,-0.204910,-0.172135,-0.058622
3.980,652800,8.370130,5.109226,7.125144,-0.198648,-0.116044,-0.093795
4.000,652820,8.374918,5.051765,7.254431,-0.194651,-0.130966,-0.122972
4.020,652840,8.092402,4.788404,7.062895,-0.193985,-0.106585,-0.124305
4.040,652860,7.800309,4.587290,6.957550,-0.192253,-0.126436,-0.088865
4.060,652880,7.340622,4.357447,6.751649,-0.189455,-0.139227,-0.036239
4.080,652900,7.139510,4.319140,6.660669,-0.187190,-0.177064,0.009193
4.100,652920,7.101202,4.209007,6.445191,-0.163208,-0.211172,0.034107
4.120,652940,6.847417,4.027047,6.186617,-0.142691,-0.246078,0.055291
4.140,652960,6.737284,3.955221,6.090849,-0.120974,-0.287913,0.044499
4.160,652980,6.775591,3.849876,6.052542,-0.100057,-0.322953,0.018786
4.180,653000,6.651093,3.715801,6.047753,-0.091930,-0.337475,-0.002665
4.200,653020,6.890512,3.687071,6.244078,-0.107118,-0.331613,-0.029844
4.220,653040,7.249643,3.854665,6.349423,-0.134430,-0.297505,-0.060354
4.240,653060,7.297527,4.055778,6.483498,-0.151484,-0.244746,-0.103654
4.260,653080,7.345411,4.161122,6.627151,-0.162675,-0.191187,-0.164274
4.280,653100,7.417237,4.299986,6.837840,-0.180395,-0.106452,-0.212237
4.300,653120,7.407660,4.323928,6.986280,-0.200913,0.004663,-0.243014
4.320,653140,7.551312,4.381389,7.005434,-0.227692,0.092063,-0.278720
4.340,653160,7.675811,4.438850,6.804321,-0.236219,0.148686,-0.296040
4.360,653180,7.632715,4.390966,6.588843,-0.222363,0.161343,-0.289645
4.380,653200,7.694964,4.319140,6.330269,-0.199714,0.129767,-0.261533
4.400,653220,7.728483,4.185065,6.081272,-0.159744,0.056757,-0.211305
4.420,653240,7.685388,4.161122,5.995081,-0.102322,-0.021850,-0.153882
4.440,653260,7.431602,4.084508,6.019023,-0.052493,-0.067282,-0.111248
4.460,653280,7.254431,3.993528,5.966351,0.000533,-0.106452,-0.092063
4.480,653300,7.287950,3.955221,5.937620,0.020384,-0.104986,-0.079939
4.500,653320,7.374141,3.964798,5.985504,0.002531,-0.079939,-0.077541
4.520,653340,7.283162,3.974375,6.057330,-0.008793,-0.057423,-0.070613
4.540,653360,7.321469,4.060566,6.177041,-0.030243,-0.021983,-0.063951
4.560,653380,7.378930,4.137180,6.234501,-0.047164,0.015455,-0.062619
4.580,653400,7.393295,4.146757,6.258443,-0.062219,0.032109,-0.066482
4.600,653420,7.417237,4.027047,6.124368,-0.070613,0.039037,-0.055557
4.620,653440,7.307104,3.931279,6.090849,-0.091796,0.030377,-0.021184
4.640,653460,7.388506,3.902549,5.966351,-0.098191,0.001466,0.014655
4.660,653480,7.311892,3.912126,5.951985,-0.095527,-0.041035,0.063951
4.680,653500,7.211336,3.993528,6.071695,-0.079806,-0.083136,0.096726
4.700,653520,7.149086,4.074931,6.143522,-0.065283,-0.088066,0.117243
4.720,653540,7.177817,4.132392,6.129156,-0.055957,-0.083802,0.144156
4.740,653560,7.359776,4.343082,6.224925,-0.036106,-0.085534,0.172668
4.760,653580,8.178593,5.056554,6.991069,-0.012790,-0.118975,0.168804
4.780,653600,9.514558,5.109226,7.240066,0.023715,-0.013723,0.152017
4.800,653620,8.298303,4.850653,6.924031,-0.021051,0.124838,0.227026
4.820,653640,8.475474,5.042189,6.909666,-0.002132,0.133764,0.256870
4.840,653660,8.010999,4.975151,6.593631,0.008660,0.205443,0.256870
4.860,653680,7.704541,5.027823,6.579266,0.051161,0.215835,0.233155
4.880,653700,7.455544,4.903325,6.526594,0.091397,0.233954,0.204510
4.900,653720,7.326257,4.625597,6.344635,0.121773,0.237418,0.200513
4.920,653740,7.149086,4.256891,6.086061,0.133631,0.203977,0.231556
4.940,653760,7.125144,3.988740,5.861006,0.123372,0.139360,0.288312
4.960,653780,7.058106,3.902549,5.803545,0.091663,0.080605,0.338807
4.980,653800,6.876147,3.883395,5.731719,0.063018,0.040636,0.361856
5.000,653820,6.971915,4.098873,5.817910,0.052760,0.009060,0.342271
5.020,653840,7.259220,4.309563,5.937620,0.068214,0.024381,0.288446
5.040,653860,7.340622,4.462792,6.047753,0.077141,0.063818,0.211838
5.060,653880,7.398083,4.616021,6.200983,0.089798,0.107518,0.123239
5.080,653900,7.532158,4.821922,6.430826,0.103254,0.175066,0.030243
5.100,653920,7.560889,4.975151,6.675035,0.114312,0.256870,-0.063152
5.120,653940,7.647080,4.922479,6.722919,0.121374,0.336809,-0.142158
5.140,653960,7.546524,4.616021,6.579266,0.100989,0.384372,-0.167338
5.160,653980,7.752425,4.338294,6.402095,0.069413,0.358392,-0.142025
5.180,654000,7.991845,4.118027,6.133945,0.031975,0.291910,-0.064351
5.200,654020,7.790732,3.955221,6.009446,-0.008926,0.199980,0.016920
5.220,654040,7.498640,3.859453,6.014235,-0.042234,0.116311,0.059021
5.240,654060,7.455544,3.878607,5.995081,-0.071279,0.061953,0.056357
5.260,654080,7.311892,3.897760,5.908890,-0.095527,0.039436,0.038904
5.280,654100,7.268796,3.988740,5.990293,-0.104986,0.011458,-0.007861
5.300,654120,7.393295,4.175488,6.033388,-0.103654,0.010259,-0.071945
5.320,654140,7.522582,4.256891,6.133945,-0.103121,0.005729,-0.126436
5.340,654160,7.757214,4.280833,6.138733,-0.100989,-0.011591,-0.162142
5.360,654180,7.824251,4.237737,6.090849,-0.110715,-0.025714,-0.169870
5.380,654200,7.666234,4.232949,6.090849,-0.130833,-0.056757,-0.164141
5.400,654220,7.723695,4.237737,6.066907,-0.156280,-0.090730,-0.161476
5.420,654240,7.694964,4.127604,5.918467,-0.184925,-0.143357,-0.143090
5.440,654260,7.594408,3.988740,5.755661,-0.217433,-0.201046,-0.097792
5.460,654280,7.608773,4.137180,5.827487,-0.249276,-0.256337,-0.049162
5.480,654300,7.493851,4.295198,5.918467,-0.254338,-0.277121,-0.037838
5.500,654320,7.321469,4.328717,5.995081,-0.251274,-0.275789,-0.047430
5.520,654340,7.469909,4.424485,6.129156,-0.252073,-0.257403,-0.052893
5.540,654360,7.896077,4.769250,6.469133,-0.257403,-0.246877,-0.068081
5.560,654380,8.757990,5.099649,6.876147,-0.250342,-0.216234,-0.106718
5.580,654400,8.489840,5.003881,6.852205,-0.272858,-0.145489,-0.116311
5.600,654420,8.638280,4.927267,6.804321,-0.276988,-0.157613,-0.108717
5.620,654440,8.197746,4.572925,6.449979,-0.270859,-0.158145,-0.087000
5.640,654460,7.814674,4.390966,6.282385,-0.252207,-0.219299,-0.059021
5.660,654480,7.671022,4.127604,6.191406,-0.233155,-0.243547,-0.019718
5.680,654500,7.608773,3.983952,6.062119,-0.221963,-0.267795,0.034107
5.700,654520,7.608773,4.007894,6.052542,-0.210239,-0.272191,0.072611
5.720,654540,7.431602,3.945644,6.081272,-0.204110,-0.254605,0.075409
5.740,654560,7.450756,4.050989,6.057330,-0.201446,-0.236352,0.044233
5.760,654580,7.216124,3.998317,6.071695,-0.188122,-0.187057,0.000533
5.780,654600,6.837840,4.007894,6.129156,-0.175199,-0.143224,-0.057556
5.800,654620,6.842628,3.912126,6.105214,-0.155881,-0.120041,-0.134164
5.820,654640,7.350199,3.801992,6.071695,-0.150685,-0.129234,-0.182793
5.840,654660,7.723695,3.864242,6.157887,-0.164807,-0.146021,-0.184925
5.860,654680,7.723695,3.873818,6.248867,-0.183459,-0.152816,-0.180129
5.880,654700,7.661446,3.883395,6.277597,-0.215701,-0.154948,-0.177730
5.900,654720,7.809886,4.074931,6.430826,-0.246744,-0.139227,-0.187190
5.920,654740,7.824251,4.247314,6.550536,-0.265397,-0.075675,-0.204377
5.940,654760,7.714118,4.362236,6.679823,-0.272191,-0.003464,-0.237951
5.960,654780,7.728483,4.400543,6.636727,-0.267528,0.076608,-0.282983
5.980,654800,7.580042,4.347870,6.449979,-0.257669,0.139093,-0.315891
6.000,654820,7.594408,4.295198,6.335058,-0.237018,0.151884,-0.339074
6.020,654840,7.795521,4.141969,6.124368,-0.211571,0.132432,-0.330946
6.040,654860,7.872135,4.036624,5.951985,-0.196783,0.082070,-0.284582
6.060,654880,7.647080,3.945644,5.961562,-0.182926,0.023582,-0.235953
6.080,654900,7.465121,3.907337,5.990293,-0.171735,-0.018386,-0.195317
6.100,654920,7.398083,3.993528,6.014235,-0.162809,-0.035040,-0.183326
6.120,654940,7.417237,3.969586,6.004658,-0.146688,-0.050894,-0.186524
6.140,654960,7.364564,3.960010,6.100426,-0.147087,-0.036106,-0.174133
6.160,654980,7.335834,4.050989,6.205771,-0.147487,-0.002132,-0.155348
6.180,655000,7.369353,4.170700,6.210559,-0.138427,0.027845,-0.154815
6.200,655020,7.359776,4.223372,6.234501,-0.121240,0.060487,-0.152816
6.220,655040,7.388506,4.199430,6.224925,-0.102988,0.076342,-0.131899
6.240,655060,7.364564,4.041412,6.143522,-0.092596,0.086467,-0.093662
6.260,655080,7.422025,3.931279,6.090849,-0.089531,0.068481,-0.046098
6.280,655100,7.407660,3.897760,6.110003,-0.083403,0.044233,0.011591
6.300,655120,7.460332,3.921702,6.143522,-0.074077,0.012524,0.049962
6.320,655140,7.570466,3.921702,6.181829,-0.066616,-0.007328,0.090464
6.340,655160,7.527370,3.936068,6.100426,-0.059288,-0.020651,0.141092
6.360,655180,7.450756,4.118027,6.234501,-0.039570,-0.033574,0.169737
6.380,655200,7.599196,4.467580,6.627151,-0.012790,-0.025181,0.177198
6.400,655220,9.078813,5.008670,7.278373,0.006262,-0.011058,0.155081
6.420,655240,8.513782,4.702212,6.766014,0.008260,0.146954,0.196916
6.440,655260,8.197746,5.075707,6.981492,0.025847,0.096060,0.200779
6.460,655280,8.542512,4.955997,6.766014,0.081271,0.149086,0.180662
6.480,655300,7.915231,4.826711,6.531382,0.091397,0.175599,0.199847
6.500,655320,7.608773,4.831499,6.277597,0.126969,0.187856,0.218766
6.520,655340,7.331046,4.788404,6.244078,0.165473,0.225960,0.223029
6.540,655360,7.173028,4.654328,6.248867,0.206775,0.230090,0.232755
6.560,655380,7.019799,4.319140,6.023811,0.226760,0.226360,0.269527
6.580,655400,6.924031,4.146757,6.004658,0.218100,0.181861,0.313360
6.600,655420,6.789956,4.022259,5.803545,0.194651,0.161876,0.346135
6.620,655440,6.627151,3.988740,5.702989,0.156147,0.136962,0.345735
6.640,655460,6.871359,4.113238,5.717354,0.125371,0.098191,0.322153
6.660,655480,7.134721,4.338294,5.880159,0.114446,0.111115,0.291510
6.680,655500,7.082048,4.515464,6.071695,0.112980,0.151750,0.234487
6.700,655520,7.465121,4.644751,6.258443,0.120441,0.185058,0.155747
6.720,655540,7.795521,4.855441,6.421249,0.122440,0.220631,0.075409
6.740,655560,8.006210,4.922479,6.526594,0.129368,0.237152,-0.022516
6.760,655580,7.699753,4.726154,6.445191,0.126570,0.259801,-0.099923
6.780,655600,7.436390,4.453215,6.392519,0.087666,0.263665,-0.137228
6.800,655620,7.556100,4.256891,6.229713,0.036905,0.242348,-0.140426
6.820,655640,7.647080,4.094085,6.076484,-0.020784,0.207708,-0.099923
6.840,655660,7.474698,4.027047,5.980716,-0.075409,0.159478,-0.029311
6.860,655680,7.388506,4.103662,5.928043,-0.110715,0.103121,0.020251
6.880,655700,7.283162,4.204218,5.932832,-0.119775,0.066216,0.029311
6.900,655720,7.254431,4.319140,5.985504,-0.108983,0.050495,0.014123
6.920,655740,7.345411,4.338294,6.038177,-0.100723,0.045165,-0.019185
6.940,655760,7.493851,4.343082,6.023811,-0.092462,0.036239,-0.050361
6.960,655780,7.618350,4.333505,5.966351,-0.092862,0.015988,-0.073810
6.980,655800,7.809886,4.328717,5.971139,-0.094594,-0.017054,-0.096060
7.000,655820,7.728483,4.237737,5.942409,-0.107118,-0.041035,-0.107518
7.020,655840,7.484274,4.204218,5.904101,-0.134164,-0.057556,-0.108051
7.040,655860,7.359776,4.223372,5.841852,-0.162142,-0.071812,-0.113913
7.060,655880,7.383718,4.180276,5.750873,-0.183459,-0.087133,-0.119242
7.080,655900,7.321469,4.180276,5.674258,-0.205176,-0.098858,-0.106985
7.100,655920,7.168240,4.199430,5.798757,-0.229291,-0.102188,-0.091930
7.120,655940,7.254431,4.285621,5.942409,-0.250741,-0.094061,-0.085401
7.140,655960,7.426814,4.371812,5.999869,-0.263398,-0.079806,-0.068214
7.160,655980,7.747637,4.544195,6.162675,-0.269127,-0.083003,-0.054625
7.180,656000,7.982268,4.630386,6.277597,-0.254338,-0.087000,-0.033708
7.200,656020,8.686164,5.099649,6.866570,-0.246345,-0.149352,-0.034640
7.220,656040,9.279925,5.080496,6.756437,-0.215835,-0.123905,-0.037704
7.240,656060,8.652645,5.070919,6.876147,-0.228625,-0.179196,-0.019985
7.260,656080,8.757990,4.908113,6.885724,-0.220498,-0.214369,0.003597
7.280,656100,8.130709,4.788404,6.789956,-0.233688,-0.234087,0.019585
7.300,656120,7.781156,4.501099,6.636727,-0.225028,-0.267662,0.020518
7.320,656140,7.489063,4.127604,6.296751,-0.223828,-0.298838,0.042634
7.340,656160,7.489063,4.156334,6.282385,-0.225427,-0.348799,0.055424
7.360,656180,7.307104,4.012682,6.248867,-0.217300,-0.356660,0.031443
7.380,656200,6.947973,3.892972,6.114791,-0.228492,-0.348266,0.010259
7.400,656220,6.900089,3.801992,6.081272,-0.233554,-0.346801,-0.028778
7.420,656240,6.794744,3.596091,5.913678,-0.248210,-0.339207,-0.062219
7.440,656260,6.828263,3.552995,5.947197,-0.264464,-0.347334,-0.079939
7.460,656280,7.139510,3.605668,6.057330,-0.279386,-0.342538,-0.095793
7.480,656300,7.254431,3.730166,6.210559,-0.295507,-0.308430,-0.116311
7.500,656320,7.196970,3.725378,6.296751,-0.304567,-0.243413,-0.134031
7.520,656340,7.149086,3.811569,6.478710,-0.313360,-0.158012,-0.152550
7.540,656360,7.350199,4.027047,6.737284,-0.322020,-0.057956,-0.186124
7.560,656380,7.556100,4.285621,6.947973,-0.325884,0.050228,-0.230623
7.580,656400,7.690176,4.390966,7.058106,-0.323619,0.140692,-0.284715
7.600,656420,7.852982,4.333505,6.871359,-0.306165,0.191054,-0.317357
7.620,656440,8.030152,4.204218,6.651093,-0.271792,0.179196,-0.310962
7.640,656460,8.135497,4.141969,6.440403,-0.230890,0.106452,-0.277121
7.660,656480,8.116343,4.070143,6.296751,-0.187323,0.007328,-0.243147
7.680,656500,7.900866,3.912126,6.186617,-0.151884,-0.076741,-0.209440
7.700,656520,7.508216,3.778050,6.100426,-0.134830,-0.121507,-0.177597
7.720,656540,7.244854,3.768473,6.105214,-0.128035,-0.122173,-0.169204
7.740,656560,7.287950,3.787627,6.086061,-0.126570,-0.104187,-0.186257
7.760,656580,7.484274,3.696647,5.951985,-0.135096,-0.083003,-0.205176
7.780,656600,7.603985,3.773262,5.995081,-0.146688,-0.079406,-0.205176
7.800,656620,7.637504,3.830723,6.023811,-0.150818,-0.055557,-0.190121
7.820,656640,7.747637,3.921702,6.066907,-0.150418,-0.044499,-0.168005
7.840,656660,7.867347,3.964798,6.004658,-0.140426,-0.026779,-0.137495
7.860,656680,7.929596,4.007894,6.033388,-0.120041,-0.035573,-0.094727
7.880,656700,7.967903,4.017470,6.086061,-0.096459,-0.032508,-0.045698
7.900,656720,7.843405,3.888184,6.057330,-0.082870,-0.025181,0.002265
7.920,656740,7.943961,3.754108,5.937620,-0.074343,-0.047830,0.063551
7.940,656760,7.900866,3.734955,5.904101,-0.068081,-0.075542,0.112847
7.960,656780,7.819463,3.773262,6.014235,-0.045432,-0.104187,0.133231
7.980,656800,7.556100,3.706224,5.995081,-0.039436,-0.087400,0.143224
8.000,656820,7.613562,3.629610,5.899313,-0.040502,-0.078606,0.149619
8.020,656840,7.513005,3.615245,5.856217,-0.045565,-0.061553,0.152949
8.040,656860,7.407660,3.706224,5.908890,-0.041435,-0.046098,0.149219
8.060,656880,7.364564,3.773262,5.990293,-0.038504,-0.024115,0.150418
8.080,656900,8.303091,4.367024,6.612785,-0.039570,-0.055025,0.135230
8.100,656920,9.500193,4.481946,6.823475,-0.027046,0.024115,0.130300
8.120,656940,8.609550,4.568137,6.880936,-0.068348,0.094861,0.171469
8.140,656960,9.136273,4.888960,7.182605,-0.055691,0.099524,0.143357
8.160,656980,8.690952,4.869806,6.962338,-0.063685,0.186391,0.113247
8.180,657000,8.054094,4.788404,6.761226,-0.032242,0.211971,0.086867
8.200,657020,7.474698,4.644751,6.584054,0.008660,0.216767,0.050228
8.220,657040,7.388506,4.338294,6.354211,0.055824,0.196116,0.035040
8.240,657060,7.077260,3.806781,5.918467,0.075409,0.154815,0.103387
8.260,657080,7.010222,3.576937,5.717354,0.065017,0.051427,0.219032
8.280,657100,7.278373,3.548207,5.477933,0.059821,-0.046098,0.321753
8.300,657120,7.455544,3.749320,5.530606,0.063551,-0.123772,0.368384
8.320,657140,7.393295,3.969586,5.616797,0.088998,-0.133897,0.363322
8.340,657160,7.292738,4.137180,5.707777,0.121507,-0.107651,0.313093
8.360,657180,7.728483,4.434062,5.894525,0.156147,-0.073277,0.227159
8.380,657200,8.169016,4.707001,6.162675,0.180662,0.000933,0.118975
8.400,657220,8.073248,4.807557,6.325481,0.193452,0.113113,0.013856
8.420,657240,7.805098,4.750096,6.306327,0.201579,0.215302,-0.078207
8.440,657260,7.809886,4.563348,6.200983,0.194651,0.276055,-0.148819
8.460,657280,7.924808,4.261679,5.966351,0.166672,0.291910,-0.170136
8.480,657300,8.178593,4.003105,5.693412,0.122972,0.243547,-0.114312
8.500,657320,8.145074,3.801992,5.511452,0.066616,0.160810,-0.010525
8.520,657340,7.886500,3.696647,5.406107,0.013190,0.079273,0.095394
8.540,657360,7.556100,3.792415,5.396531,-0.024248,0.030643,0.152550
8.560,657380,7.412448,3.979163,5.516241,-0.041835,0.009193,0.137894
8.580,657400,7.541735,4.012682,5.588067,-0.044899,0.009593,0.090064
8.600,657420,7.790732,4.050989,5.640739,-0.065017,0.015988,0.062485
8.620,657440,7.900866,4.065354,5.540183,-0.079006,0.017853,0.036905
8.640,657460,7.996634,4.213795,5.597643,-0.082603,0.006795,-0.000799
8.660,657480,8.015787,4.170700,5.635951,-0.074210,0.009593,-0.028911
8.680,657500,7.910442,4.141969,5.645528,-0.073943,0.010126,-0.038904
8.700,657520,7.762002,4.041412,5.592855,-0.078340,0.012124,-0.041035
8.720,657540,7.618350,3.993528,5.549759,-0.090331,0.000000,-0.038637
8.740,657560,7.565677,3.974375,5.540183,-0.102455,-0.016387,-0.033175
8.760,657580,7.632715,4.022259,5.578490,-0.111914,-0.039170,-0.028112
8.780,657600,7.666234,3.983952,5.640739,-0.128168,-0.052227,-0.010925
8.800,657620,7.785944,4.070143,5.702989,-0.145755,-0.077541,0.004397
8.820,657640,7.862558,4.180276,5.837064,-0.158678,-0.097925,0.012923
8.840,657660,8.063671,4.390966,6.114791,-0.173067,-0.122839,0.016787
8.860,657680,9.591172,4.936844,6.698977,-0.176798,-0.198248,-0.010658
8.880,657700,9.758766,4.659117,6.382942,-0.179995,-0.137761,0.009060
8.900,657720,9.126697,4.774038,6.631939,-0.208240,-0.200113,0.039303
8.920,657740,9.131485,4.606444,6.354211,-0.183459,-0.180795,0.040902
8.940,657760,8.485051,4.400543,6.268020,-0.176265,-0.189055,0.023582
8.960,657780,8.015787,4.074931,6.119579,-0.164807,-0.177064,0.021583
8.980,657800,7.675811,3.830723,5.861006,-0.163874,-0.174533,0.040236
9.000,657820,7.867347,3.792415,5.746084,-0.151351,-0.198115,0.061553
9.020,657840,7.733272,3.696647,5.578490,-0.137095,-0.195184,0.072744
9.040,657860,7.479486,3.730166,5.559336,-0.122173,-0.210639,0.065283
9.060,657880,7.297527,3.552995,5.525817,-0.104054,-0.207041,0.039436
9.080,657900,7.153875,3.303998,5.410896,-0.107251,-0.209040,0.019718
9.100,657920,7.560889,3.342306,5.554548,-0.111781,-0.243946,-0.010259
9.120,657940,7.953538,3.399766,5.731719,-0.125770,-0.245279,-0.053426
9.140,657960,8.226477,3.529053,5.765238,-0.128835,-0.231556,-0.071812
9.160,657980,8.169016,3.792415,5.889736,-0.112980,-0.203178,-0.085934
9.180,658000,8.255207,3.969586,6.205771,-0.067282,-0.156547,-0.136296
9.200,658020,8.192958,4.165911,6.483498,-0.041035,-0.055957,-0.204643
9.220,658040,7.915231,4.256891,6.708553,-0.046631,0.092329,-0.281917
9.240,658060,7.838616,4.180276,6.478710,-0.064084,0.199447,-0.354528
9.260,658080,7.972692,4.007894,6.066907,-0.086467,0.237018,-0.388369
9.280,658100,8.250419,3.782839,5.702989,-0.106185,0.191054,-0.363855
9.300,658120,8.283937,3.658340,5.463568,-0.128035,0.098858,-0.287913
9.320,658140,8.087613,3.667917,5.406107,-0.154815,0.012923,-0.219165
9.340,658160,7.762002,3.706224,5.382165,-0.167605,-0.030643,-0.183859
9.360,658180,7.627927,3.734955,5.401319,-0.168804,-0.049296,-0.170936
9.380,658200,7.637504,3.763685,5.329493,-0.164674,-0.037172,-0.165207
9.400,658220,7.714118,3.811569,5.348647,-0.164008,-0.027046,-0.167871
9.420,658240,7.857770,3.849876,5.449203,-0.162542,-0.016521,-0.176132
9.440,658260,7.958326,3.888184,5.631162,-0.174000,0.013989,-0.172135
9.460,658280,8.049306,3.969586,5.688623,-0.186124,0.057289,-0.148686
9.480,658300,8.116343,3.974375,5.674258,-0.185325,0.092862,-0.114712
9.500,658320,8.001422,3.998317,5.607220,-0.165340,0.108051,-0.070879
9.520,658340,7.958326,3.936068,5.554548,-0.136695,0.116711,-0.019585
9.540,658360,7.996634,3.897760,5.367800,-0.107118,0.111781,0.045965
9.560,658380,7.896077,3.950433,5.410896,-0.069680,0.116844,0.107917
9.580,658400,7.627927,3.806781,5.477933,-0.031176,0.159345,0.155614
9.600,658420,7.522582,3.739743,5.530606,-0.013590,0.205309,0.176665
9.620,658440,7.776367,3.811569,5.616797,0.007061,0.221164,0.164541
9.640,658460,8.054094,3.811569,5.655105,0.024115,0.215168,0.142158
9.660,658480,7.958326,3.821146,5.798757,0.025447,0.201446,0.136296
9.680,658500,8.034941,4.118027,6.335058,0.011724,0.158678,0.122040
9.700,658520,9.667787,4.486734,6.732495,0.010925,0.126303,0.100456
9.720,658540,8.772355,4.089296,6.311116,-0.028645,0.202378,0.161210
9.740,658560,8.853758,4.496311,6.612785,-0.055158,0.099124,0.182527
9.760,658580,8.753201,4.611232,6.320693,-0.042234,0.137894,0.180129
9.780,658600,8.058883,4.721366,6.440403,-0.013190,0.131499,0.148686
9.800,658620,7.785944,4.572925,6.296751,0.042368,0.143757,0.101655
9.820,658640,7.814674,4.314352,6.066907,0.075809,0.156014,0.088998
9.840,658660,7.522582,4.065354,5.722142,0.101256,0.152283,0.109783
9.860,658680,7.058106,3.888184,5.559336,0.113113,0.128035,0.128435
9.880,658700,6.880936,3.667917,5.516241,0.104587,0.111648,0.145888
9.900,658720,7.029376,3.543418,5.497087,0.073544,0.098724,0.158545
9.920,658740,7.163452,3.596091,5.583278,0.041568,0.099257,0.168538
9.940,658760,7.422025,4.065354,5.875371,0.029577,0.118576,0.140959
9.960,658780,7.244854,4.386178,6.157887,0.038104,0.199314,0.067282
9.980,658800,7.513005,4.783615,6.440403,0.049429,0.246078,-0.033708
10.000,658820,7.991845,5.070919,6.675035,0.069680,0.308297,-0.139093
10.020,658840,8.087613,5.248090,6.928820,0.087666,0.377711,-0.234620
10.040,658860,7.785944,5.123591,6.947973,0.095260,0.435666,-0.300436
10.060,658880,7.642292,4.821922,6.842628,0.082737,0.443527,-0.317757
10.080,658900,7.848193,4.405331,6.545747,0.050095,0.389968,-0.258469
10.100,658920,7.833828,4.252102,6.378153,-0.003597,0.287913,-0.137628
10.120,658940,7.556100,4.108450,6.162675,-0.038770,0.189322,-0.027046
10.140,658960,7.364564,4.012682,6.009446,-0.059554,0.106052,0.047164
10.160,658980,7.311892,3.979163,5.899313,-0.069147,0.051427,0.085934
10.180,659000,7.278373,4.017470,5.875371,-0.068214,0.024648,0.086600
10.200,659020,7.321469,4.084508,5.846641,-0.062885,0.014256,0.059155
10.220,659040,7.331046,4.146757,5.928043,-0.059821,0.010525,0.013856
10.240,659060,7.445967,4.237737,5.951985,-0.055691,0.015188,-0.034507
10.260,659080,7.647080,4.213795,6.038177,-0.057689,0.016920,-0.073011
10.280,659100,7.852982,4.141969,5.995081,-0.076075,0.004930,-0.082337
10.300,659120,7.843405,4.098873,5.961562,-0.108051,-0.022116,-0.069813
10.320,659140,7.723695,4.108450,5.947197,-0.144956,-0.065550,-0.060620
10.340,659160,7.603985,4.098873,5.884948,-0.177064,-0.101655,-0.049296
10.360,659180,7.426814,4.170700,5.870583,-0.215435,-0.134297,-0.037438
10.380,659200,7.412448,4.256891,5.985504,-0.238617,-0.150418,-0.050628
10.400,659220,7.335834,4.237737,5.985504,-0.262066,-0.137495,-0.055557
10.420,659240,7.565677,4.319140,6.095637,-0.285781,-0.128435,-0.043833
10.440,659260,7.886500,4.481946,6.110003,-0.296440,-0.121907,-0.036372
10.460,659280,8.336611,4.898537,6.502652,-0.291110,-0.170669,-0.052626
10.480,659300,8.561666,4.788404,6.277597,-0.255404,-0.134564,-0.051560
10.500,659320,7.795521,4.788404,6.464345,-0.246744,-0.161609,-0.040502
10.520,659340,8.274361,4.702212,6.430826,-0.199847,-0.167871,-0.041435
10.540,659360,7.771579,4.510676,6.397307,-0.192253,-0.157746,-0.027979
10.560,659380,7.829040,4.477157,6.478710,-0.174666,-0.194651,-0.015055
10.580,659400,8.360553,4.462792,6.497863,-0.171868,-0.210772,-0.012524
10.600,659420,8.039729,4.410120,6.459556,-0.167072,-0.193452,0.002665
10.620,659440,7.422025,4.295198,6.507440,-0.161210,-0.183060,-0.014389
10.640,659460,7.244854,4.165911,6.488286,-0.161343,-0.150152,-0.047164
10.660,659480,7.105990,3.921702,6.411672,-0.176265,-0.099124,-0.057423
10.680,659500,6.794744,3.706224,6.153099,-0.204643,-0.083136,-0.053426
10.700,659520,7.091625,3.677494,5.942409,-0.227292,-0.135629,-0.050495
10.720,659540,7.546524,3.730166,5.923255,-0.229824,-0.193718,-0.044100
10.740,659560,7.637504,3.691859,6.143522,-0.225427,-0.219565,-0.035440
10.760,659580,7.350199,3.663129,6.296751,-0.230890,-0.191986,-0.043700
10.780,659600,7.316680,3.730166,6.469133,-0.243680,-0.138161,-0.087400
10.800,659620,7.431602,3.912126,6.694188,-0.255138,-0.067015,-0.161077
10.820,659640,7.560889,4.204218,7.015011,-0.263931,0.025980,-0.263398
10.840,659660,7.546524,4.371812,7.196970,-0.271525,0.145888,-0.377577
10.860,659680,7.594408,4.304775,7.029376,-0.275789,0.233554,-0.470706
10.880,659700,7.843405,4.089296,6.598420,-0.271126,0.247544,-0.495487
10.900,659720,7.862558,4.041412,6.296751,-0.268328,0.181328,-0.472438
10.920,659740,7.757214,3.974375,6.258443,-0.245678,0.098591,-0.442461
10.940,659760,7.819463,3.859453,6.129156,-0.229691,0.023582,-0.376778
10.960,659780,7.599196,3.892972,6.009446,-0.218100,-0.043300,-0.292709
10.980,659800,7.441179,4.055778,6.014235,-0.180662,-0.104853,-0.241015
11.000,659820,7.211336,4.127604,6.090849,-0.138028,-0.120175,-0.222763
11.020,659840,7.048530,4.141969,6.239290,-0.108717,-0.094727,-0.203044
11.040,659860,7.048530,4.103662,6.296751,-0.098325,-0.042501,-0.181994
11.060,659880,7.139510,4.141969,6.301539,-0.100456,0.014123,-0.162942
11.080,659900,7.244854,4.213795,6.287174,-0.093395,0.062352,-0.140026
11.100,659920,7.354988,4.266468,6.301539,-0.078873,0.094994,-0.111914
11.120,659940,7.350199,4.228160,6.287174,-0.059954,0.112447,-0.076075
11.140,659960,7.326257,4.108450,6.248867,-0.038770,0.114446,-0.021850
11.160,659980,7.340622,4.070143,6.210559,-0.011058,0.100989,0.034107
11.180,660000,7.163452,4.094085,6.229713,0.015721,0.086867,0.076075
11.200,660020,7.091625,4.137180,6.382942,0.045032,0.068214,0.101522
11.220,660040,7.335834,4.165911,6.359000,0.058222,0.048763,0.118709
11.240,660060,7.551312,4.146757,6.392519,0.065949,0.015322,0.154282
11.260,660080,7.508216,4.209007,6.421249,0.063018,-0.005596,0.195450
11.280,660100,7.852982,4.649539,6.904878,0.052093,-0.047697,0.209706
11.300,660120,9.045294,4.984728,7.244854,0.057822,-0.046231,0.195717
11.320,660140,8.312668,4.683059,7.029376,0.038104,0.045832,0.225028
11.340,660160,8.355764,4.912902,7.129933,0.020118,0.018386,0.233554
11.360,660180,8.216900,4.855441,6.799533,0.022516,0.078340,0.211838
11.380,660200,7.848193,4.841076,6.861782,0.041035,0.053292,0.180795
11.400,660220,7.627927,4.596867,6.607996,0.063018,0.027979,0.155481
11.420,660240,7.532158,4.314352,6.368577,0.062352,-0.029977,0.153616
11.440,660260,7.316680,4.213795,6.191406,0.052626,-0.079939,0.174533
11.460,660280,6.866570,4.132392,6.200983,0.041968,-0.086467,0.189455
11.480,660300,6.531382,4.041412,6.200983,0.009726,-0.052760,0.195450
11.500,660320,6.507440,3.960010,5.865794,-0.018386,-0.000533,0.215435
11.520,660340,6.564901,4.113238,5.683835,-0.030377,0.006928,0.229557
11.540,660360,6.871359,4.290410,5.770026,-0.015988,0.003730,0.222363
11.560,660380,7.149086,4.429273,5.913678,0.018919,0.025847,0.218899
11.580,660400,7.129933,4.692636,6.196194,0.056757,0.070213,0.188256
11.600,660420,7.412448,4.850653,6.354211,0.099923,0.120974,0.111648
11.620,660440,7.603985,4.989516,6.540959,0.120441,0.183193,0.035972
11.640,660460,7.872135,5.171476,6.689400,0.129767,0.235553,-0.032508
11.660,660480,7.848193,5.080496,6.679823,0.129101,0.289378,-0.090064
11.680,660500,7.671022,4.683059,6.507440,0.113247,0.311361,-0.116044
11.700,660520,7.872135,4.319140,6.234501,0.068747,0.281251,-0.076475
11.720,660540,7.781156,4.127604,5.999869,0.013057,0.231956,0.012657
11.740,660560,7.393295,4.098873,5.894525,-0.026913,0.173467,0.072478
11.760,660580,7.259220,4.113238,5.880159,-0.046631,0.130433,0.090864
11.780,660600,7.244854,4.046201,5.813122,-0.056623,0.117377,0.095127
11.800,660620,7.153875,4.060566,5.861006,-0.062885,0.105253,0.089265
11.820,660640,7.216124,4.252102,5.947197,-0.060354,0.101789,0.061686
11.840,660660,7.393295,4.376601,5.990293,-0.047430,0.099257,0.011724
11.860,660680,7.556100,4.352659,6.019023,-0.036639,0.088199,-0.030377
11.880,660700,7.738060,4.276044,6.009446,-0.042634,0.066882,-0.047697
11.900,660720,7.843405,4.185065,5.966351,-0.063551,0.032109,-0.046364
11.920,660740,7.589619,4.156334,5.942409,-0.087000,0.007194,-0.051294
11.940,660760,7.364564,4.185065,5.942409,-0.107251,-0.028645,-0.063551
11.960,660780,7.388506,4.228160,5.889736,-0.123106,-0.070346,-0.076741
11.980,660800,7.364564,4.199430,5.822699,-0.136296,-0.103121,-0.079406
12.000,660820,7.254431,4.189853,5.851429,-0.152683,-0.140959,-0.066216
12.020,660840,7.398083,4.228160,5.899313,-0.173734,-0.165873,-0.040502
12.040,660860,7.580042,4.328717,6.004658,-0.190920,-0.178930,-0.011458
12.060,660880,7.699753,4.410120,6.023811,-0.199314,-0.192119,0.016387
12.080,660900,7.781156,4.558560,6.200983,-0.199980,-0.207041,0.031576
12.100,660920,8.796297,5.027823,6.708553,-0.195184,-0.249276,0.004130
12.120,660940,8.518570,4.836287,6.488286,-0.181727,-0.176665,0.002132
12.140,660960,8.513782,5.085284,6.837840,-0.177864,-0.231289,0.001599
12.160,660980,8.609550,4.932055,6.655881,-0.149885,-0.186657,0.003997
12.180,661000,8.202535,4.788404,6.588843,-0.132832,-0.190387,0.001998
12.200,661020,8.121132,4.558560,6.392519,-0.106851,-0.185591,-0.009326
12.220,661040,7.642292,4.333505,6.253655,-0.099657,-0.182926,-0.032242
12.240,661060,7.474698,4.098873,6.186617,-0.095926,-0.199047,-0.065017
12.260,661080,7.326257,3.907337,5.985504,-0.115378,-0.184259,-0.072877
12.280,661100,7.153875,3.768473,5.779603,-0.138161,-0.198648,-0.085401
12.300,661120,7.038953,3.600879,5.525817,-0.159078,-0.235153,-0.100989
12.320,661140,7.283162,3.428497,5.501875,-0.188922,-0.290444,-0.097126
12.340,661160,7.714118,3.466804,5.607220,-0.234221,-0.323885,-0.069547
12.360,661180,7.656657,3.615245,5.750873,-0.271126,-0.302302,-0.036106
12.380,661200,7.627927,3.696647,5.875371,-0.288845,-0.261133,-0.033841
12.400,661220,7.762002,3.960010,5.966351,-0.307098,-0.191986,-0.054225
12.420,661240,7.709330,4.180276,6.268020,-0.296972,-0.089132,-0.081538
12.440,661260,7.642292,4.424485,6.588843,-0.284449,0.036639,-0.127236
12.460,661280,7.599196,4.534618,6.866570,-0.263398,0.177064,-0.205576
12.480,661300,7.594408,4.405331,6.761226,-0.239949,0.279386,-0.268727
12.500,661320,7.781156,4.209007,6.507440,-0.228758,0.310429,-0.287513
12.520,661340,8.015787,4.094085,6.215348,-0.219832,0.261533,-0.264997
12.540,661360,8.054094,3.998317,6.028600,-0.195850,0.166273,-0.218366
12.560,661380,7.771579,4.017470,5.971139,-0.164807,0.074876,-0.180528
12.580,661400,7.417237,4.050989,5.995081,-0.131766,0.011458,-0.170802
12.600,661420,7.388506,4.036624,6.066907,-0.101655,-0.023715,-0.172135
12.620,661440,7.532158,3.897760,6.033388,-0.086334,-0.047963,-0.148286
12.640,661460,7.656657,3.888184,5.995081,-0.089931,-0.074343,-0.098458
12.660,661480,7.551312,3.921702,6.014235,-0.102721,-0.084602,-0.046098
12.680,661500,7.297527,4.070143,6.110003,-0.111914,-0.076475,-0.020251
12.700,661520,7.216124,4.089296,6.133945,-0.118975,-0.047031,-0.022116
12.720,661540,7.436390,3.931279,6.062119,-0.134830,-0.029977,-0.012391
12.740,661560,7.594408,3.782839,5.841852,-0.140825,-0.041035,0.034374
12.760,661580,7.484274,3.792415,5.813122,-0.127236,-0.056757,0.085135
12.780,661600,7.134721,3.888184,5.951985,-0.101522,-0.038504,0.097792
12.800,661620,7.024588,3.873818,6.004658,-0.061020,0.017453,0.080338
12.820,661640,7.220912,3.979163,6.167464,-0.038371,0.049962,0.082603
12.840,661660,7.445967,4.060566,6.287174,-0.017320,0.059554,0.086334
12.860,661680,7.671022,4.108450,6.397307,0.005596,0.062885,0.100590
12.880,661700,8.652645,4.534618,6.876147,0.010126,0.013723,0.120041
12.900,661720,9.634268,4.577713,6.828263,0.028911,0.034107,0.154149
12.920,661740,8.686164,4.745308,6.675035,0.005462,0.037838,0.220231
12.940,661760,8.848969,5.157111,6.799533,0.025181,-0.021850,0.225028
12.960,661780,8.595184,5.008670,6.588843,0.045965,-0.024115,0.230890
12.980,661800,8.288726,4.582502,6.459556,0.058755,-0.064884,0.304034
13.000,661820,7.920019,4.151546,6.229713,0.046231,-0.083536,0.416214
13.020,661840,7.599196,4.060566,6.186617,0.036639,-0.086734,0.506545
13.040,661860,7.311892,4.050989,6.224925,0.040103,-0.045032,0.527329
13.060,661880,7.048530,3.969586,6.062119,0.050761,0.014922,0.497885
13.080,661900,7.024588,3.845088,5.956774,0.064084,0.048096,0.446058
13.100,661920,7.120356,3.620033,5.650316,0.086600,0.075142,0.400493
13.120,661940,6.967127,3.505111,5.463568,0.103654,0.062885,0.357992
13.140,661960,7.067683,3.371036,5.358223,0.128968,0.017453,0.296972
13.160,661980,7.886500,3.529053,5.683835,0.127502,-0.047297,0.213037
13.180,662000,8.470686,3.615245,5.899313,0.123639,-0.035573,0.158145
13.200,662020,8.494628,3.749320,6.114791,0.097525,-0.003730,0.134963
13.220,662040,8.499416,4.089296,6.162675,0.065417,0.035573,0.097126
13.240,662060,8.566454,4.505888,6.325481,0.061153,0.073144,0.031842
13.260,662080,8.418014,4.812346,6.349423,0.092462,0.144822,-0.047430
13.280,662100,8.212111,4.697424,6.320693,0.135763,0.208640,-0.107917
13.300,662120,8.183381,4.146757,5.966351,0.166006,0.235153,-0.115511
13.320,662140,8.149862,3.634398,5.650316,0.163741,0.192253,-0.068747
13.340,662160,8.183381,3.299210,5.497087,0.126436,0.117510,0.000266
13.360,662180,7.924808,3.150769,5.382165,0.071945,0.067681,0.058355
13.380,662200,7.632715,3.275268,5.473145,0.006262,0.033574,0.063418
13.400,662220,7.733272,3.366248,5.516241,-0.039436,0.017587,0.019851
13.420,662240,7.934384,3.462016,5.487510,-0.075542,0.021051,-0.012657
13.440,662260,7.848193,3.734955,5.607220,-0.090864,0.015588,-0.060620
13.460,662280,8.020576,3.854665,5.640739,-0.075542,0.017587,-0.134697
13.480,662300,7.972692,3.763685,5.631162,-0.070213,0.033574,-0.180928
13.500,662320,8.178593,3.734955,5.664681,-0.081005,0.028378,-0.196783
13.520,662340,8.298303,3.758897,5.592855,-0.109783,0.012257,-0.204776
13.540,662360,8.135497,3.763685,5.477933,-0.149885,-0.008527,-0.196916
13.560,662380,8.097190,3.773262,5.339070,-0.196516,-0.051827,-0.178530
13.580,662400,8.049306,3.758897,5.238513,-0.232222,-0.090597,-0.141758
13.600,662420,7.967903,3.725378,5.181053,-0.257403,-0.136029,-0.084735
13.620,662440,7.977480,3.830723,5.252879,-0.273124,-0.176398,-0.029311
13.640,662460,7.972692,3.921702,5.272032,-0.265930,-0.211704,0.003997
13.660,662480,8.169016,3.993528,5.473145,-0.259002,-0.231689,0.024115
13.680,662500,8.327033,4.165911,5.813122,-0.254871,-0.228492,0.025314
13.700,662520,9.375694,4.673482,6.440403,-0.243014,-0.249276,-0.027046
13.720,662540,9.260772,4.462792,6.406884,-0.246611,-0.133764,-0.061020
13.740,662560,9.112331,4.596867,6.593631,-0.271392,-0.138560,-0.090198
13.760,662580,9.375694,4.548983,6.378153,-0.257136,-0.101522,-0.119642
13.780,662600,8.805874,4.419696,6.258443,-0.233688,-0.104320,-0.140959
13.800,662620,8.145074,4.027047,6.153099,-0.192519,-0.104054,-0.138028
13.820,662640,7.714118,3.711013,6.014235,-0.178930,-0.101123,-0.102322
13.840,662660,7.690176,3.667917,5.956774,-0.170669,-0.111515,-0.074743
13.860,662680,7.498640,3.610456,5.827487,-0.171069,-0.119642,-0.066882
13.880,662700,7.110779,3.552995,5.573701,-0.177997,-0.143890,-0.066882
13.900,662720,7.225701,3.438074,5.463568,-0.169603,-0.197315,-0.082470
13.920,662740,7.412448,3.351882,5.621585,-0.174266,-0.230090,-0.096193
13.940,662760,7.493851,3.418920,5.894525,-0.198381,-0.215035,-0.115378
13.960,662780,7.335834,3.596091,6.105214,-0.229024,-0.152550,-0.146821
13.980,662800,7.441179,3.859453,6.320693,-0.244080,-0.089798,-0.207441
14.000,662820,7.943961,4.127604,6.521805,-0.245279,-0.002398,-0.277521
14.020,662840,8.020576,4.228160,6.766014,-0.259534,0.102455,-0.323752
14.040,662860,8.049306,4.328717,6.943185,-0.289378,0.183193,-0.350531
14.060,662880,8.010999,4.295198,6.813898,-0.306698,0.250874,-0.365453
14.080,662900,8.303091,4.242526,6.411672,-0.288712,0.224361,-0.356660
14.100,662920,8.485051,4.185065,6.052542,-0.249142,0.139493,-0.302701
14.120,662940,8.264784,4.027047,5.913678,-0.197449,0.041435,-0.229024
14.140,662960,7.996634,3.787627,5.822699,-0.162276,-0.045698,-0.172934
14.160,662980,7.690176,3.610456,5.679047,-0.148553,-0.082603,-0.139626
14.180,663000,7.307104,3.620033,5.645528,-0.142691,-0.090198,-0.127236
14.200,663020,7.149086,3.763685,5.722142,-0.126170,-0.068481,-0.149619
14.220,663040,7.249643,3.897760,5.837064,-0.115778,-0.019585,-0.178263
14.240,663060,7.407660,3.940856,5.985504,-0.116311,0.044632,-0.183726
14.260,663080,7.594408,3.926491,5.956774,-0.125904,0.100590,-0.170270
14.280,663100,7.881712,3.921702,5.908890,-0.129368,0.117110,-0.131632
14.300,663120,7.958326,3.998317,5.880159,-0.113380,0.112847,-0.076208
14.320,663140,7.972692,3.931279,5.990293,-0.088199,0.098724,-0.027179
14.340,663160,7.987057,3.840300,5.995081,-0.074609,0.081804,0.014256
14.360,663180,7.948750,3.624821,5.846641,-0.065949,0.048896,0.062086
14.380,663200,7.943961,3.596091,5.746084,-0.060087,-0.002531,0.104587
14.400,663220,7.738060,3.687071,5.846641,-0.044233,-0.029178,0.115112
14.420,663240,7.752425,3.696647,5.947197,-0.027046,-0.049429,0.096992
14.440,663260,7.953538,3.581726,5.880159,-0.020518,-0.066216,0.095260
14.460,663280,8.001422,3.663129,5.870583,-0.020251,-0.090198,0.116444
14.480,663300,7.872135,3.849876,5.956774,-0.007994,-0.113113,0.128302
14.500,663320,8.408437,4.290410,6.459556,0.005196,-0.151484,0.113646
14.520,663340,9.552865,4.405331,6.584054,0.021583,-0.122839,0.110049
14.540,663360,8.724471,4.381389,6.373365,-0.009726,-0.069547,0.175998
14.560,663380,9.155427,4.625597,6.478710,0.010525,-0.124704,0.184925
14.580,663400,8.992621,4.568137,6.426037,0.009060,-0.096992,0.183060
14.600,663420,8.767567,4.458004,6.397307,0.006395,-0.097525,0.186391
14.620,663440,8.556877,4.194642,6.062119,-0.007994,-0.090198,0.191054
14.640,663460,8.188169,4.036624,5.846641,-0.030377,-0.100456,0.208907
14.660,663480,7.915231,3.916914,5.726931,-0.051694,-0.093262,0.220231
14.680,663500,7.594408,3.830723,5.535394,-0.067415,-0.057956,0.240349
14.700,663520,7.144298,3.869030,5.444415,-0.058888,-0.013057,0.239816
14.720,663540,6.876147,3.806781,5.386954,-0.034107,0.038637,0.214369
14.740,663560,6.689400,3.691859,5.166687,-0.004397,0.086867,0.194118
14.760,663580,6.986280,3.730166,5.142745,0.025047,0.100323,0.191986
14.780,663600,7.565677,3.825934,5.281609,0.061819,0.110582,0.182793
14.800,663620,7.781156,4.132392,5.559336,0.094594,0.127103,0.154948
14.820,663640,8.020576,4.314352,5.870583,0.126836,0.170802,0.103121
14.840,663660,8.216900,4.352659,6.014235,0.140559,0.231956,0.026913
14.860,663680,8.528147,4.462792,6.200983,0.132032,0.292176,-0.050095
14.880,663700,8.331821,4.548983,6.291962,0.119775,0.376378,-0.128168
14.900,663720,8.360553,4.568137,6.315904,0.104453,0.438730,-0.210505
14.920,663740,8.212111,4.266468,5.990293,0.078606,0.476568,-0.238217
14.940,663760,7.963115,4.007894,5.808333,0.037838,0.459248,-0.202511
14.960,663780,7.852982,3.763685,5.559336,0.011858,0.397429,-0.133231
14.980,663800,7.699753,3.677494,5.588067,-0.025847,0.337208,-0.052760
15.000,663820,7.575254,3.720589,5.679047,-0.050628,0.287913,0.014123
15.020,663840,7.465121,3.806781,5.698200,-0.059821,0.257003,0.048629
15.040,663860,7.527370,3.926491,5.669470,-0.054758,0.220764,0.047031
15.060,663880,7.608773,3.974375,5.760449,-0.033974,0.185325,0.017453
15.080,663900,7.733272,4.017470,5.904101,-0.026913,0.155747,-0.020917
15.100,663920,7.862558,4.017470,5.923255,-0.035306,0.134830,-0.063551
15.120,663940,7.915231,4.022259,5.961562,-0.051294,0.098591,-0.109783
15.140,663960,7.905654,4.060566,5.923255,-0.073677,0.065816,-0.152417
15.160,663980,7.829040,4.089296,5.846641,-0.095660,0.029444,-0.174266
15.180,664000,7.589619,4.118027,5.827487,-0.116577,0.001865,-0.182660
15.200,664020,7.546524,4.084508,5.765238,-0.146288,-0.032508,-0.185591
15.220,664040,7.651869,4.074931,5.612009,-0.173467,-0.070213,-0.163475
15.240,664060,7.675811,4.041412,5.659893,-0.202911,-0.115245,-0.114312
15.260,664080,7.675811,4.041412,5.736507,-0.222096,-0.141358,-0.071545
15.280,664100,7.618350,4.103662,5.865794,-0.250075,-0.163874,-0.052093
15.300,664120,7.896077,4.108450,5.932832,-0.273391,-0.196383,-0.041701
15.320,664140,8.034941,4.290410,6.200983,-0.298571,-0.202378,-0.027046
15.340,664160,8.872911,4.735731,6.670246,-0.289778,-0.227559,-0.043433
15.360,664180,8.681376,4.707001,6.607996,-0.280185,-0.175199,-0.066083
15.380,664200,8.547300,4.750096,6.804321,-0.262732,-0.203977,-0.091530
15.400,664220,8.623915,4.568137,6.579266,-0.244613,-0.172534,-0.105919
15.420,664240,8.245630,4.376601,6.569689,-0.248476,-0.182793,-0.100190
15.440,664260,8.092402,4.218584,6.488286,-0.238084,-0.175466,-0.094061
15.460,664280,7.905654,3.969586,6.268020,-0.231289,-0.174133,-0.062619
15.480,664300,7.915231,3.849876,6.181829,-0.225028,-0.199181,-0.022116
15.500,664320,7.709330,3.854665,6.100426,-0.223296,-0.194784,0.002265
15.520,664340,7.402872,3.936068,6.153099,-0.209440,-0.197449,-0.012657
15.540,664360,7.096414,3.763685,5.995081,-0.188256,-0.177331,-0.057023
15.560,664380,6.962338,3.562572,5.808333,-0.188655,-0.177730,-0.092063
15.580,664400,7.120356,3.500323,5.803545,-0.184525,-0.202511,-0.109516
15.600,664420,7.479486,3.557784,5.947197,-0.178397,-0.219965,-0.127103
15.620,664440,7.632715,3.667917,6.124368,-0.176531,-0.213570,-0.140692
15.640,664460,7.661446,3.763685,6.181829,-0.180795,-0.179596,-0.159744
15.660,664480,7.939173,3.835511,6.268020,-0.186790,-0.156547,-0.170936
15.680,664500,8.097190,4.098873,6.526594,-0.201979,-0.124838,-0.164274
15.700,664520,7.948750,4.400543,6.856994,-0.215168,-0.058355,-0.180262
15.720,664540,7.742848,4.467580,6.943185,-0.228225,0.026513,-0.228225
15.740,664560,7.943961,4.295198,6.627151,-0.247943,0.068348,-0.269394
15.760,664580,8.250419,4.012682,6.129156,-0.256337,0.052626,-0.257136
15.780,664600,8.188169,3.926491,5.865794,-0.251407,-0.001732,-0.196383
15.800,664620,7.896077,3.916914,5.817910,-0.231689,-0.056357,-0.132032
15.820,664640,7.484274,3.926491,5.702989,-0.194384,-0.071012,-0.103920
15.840,664660,7.307104,3.936068,5.736507,-0.142824,-0.071545,-0.100723
15.860,664680,7.192182,3.926491,5.808333,-0.099124,-0.041435,-0.103920
15.880,664700,7.244854,3.983952,5.918467,-0.064351,0.001599,-0.109783
15.900,664720,7.359776,3.950433,5.951985,-0.044233,0.051427,-0.115911
15.920,664740,7.589619,3.926491,5.990293,-0.026113,0.087533,-0.118576
15.940,664760,7.776367,3.873818,6.009446,-0.020384,0.120708,-0.095394
15.960,664780,7.785944,3.912126,6.100426,-0.018919,0.136562,-0.069813
15.980,664800,7.867347,3.864242,6.153099,-0.011191,0.143090,-0.047031
16.000,664820,7.843405,3.811569,6.100426,-0.013989,0.158812,-0.012257
16.020,664840,7.905654,3.792415,6.114791,-0.010392,0.139493,0.016787
16.040,664860,8.078036,3.768473,6.009446,-0.001466,0.101789,0.050761
16.060,664880,7.972692,3.667917,5.923255,-0.004530,0.040769,0.100057
16.080,664900,7.967903,3.624821,5.861006,0.001466,-0.015188,0.143224
16.100,664920,7.766790,3.548207,5.846641,0.008527,-0.056090,0.182793
16.120,664940,7.627927,3.586514,5.789180,0.005862,-0.094061,0.195983
16.140,664960,7.680599,3.639187,5.803545,0.006662,-0.114845,0.190254
16.160,664980,7.647080,3.696647,5.803545,0.002132,-0.117510,0.189322
16.180,665000,7.599196,3.749320,5.937620,-0.001199,-0.106718,0.191187
16.200,665020,8.456321,4.367024,6.564901,-0.007194,-0.136429,0.179063
16.220,665040,9.629479,4.328717,6.660669,0.001865,-0.060487,0.154149
16.240,665060,8.935161,4.395754,6.660669,-0.043300,-0.017320,0.200779
16.260,665080,9.414001,4.635174,6.770802,-0.033441,-0.007727,0.187190
16.280,665100,8.714894,4.410120,6.473921,-0.055824,0.064884,0.174400
16.300,665120,8.317456,4.525041,6.339846,-0.040369,0.075409,0.167205
16.320,665140,8.049306,4.496311,6.110003,-0.000266,0.104054,0.128035
16.340,665160,7.565677,4.165911,5.875371,0.051960,0.101922,0.090064
16.360,665180,6.952762,3.720589,5.578490,0.077674,0.078606,0.089798
16.380,665200,6.809110,3.399766,5.286397,0.078340,0.029977,0.130167
16.400,665220,7.331046,3.375824,5.128380,0.072877,-0.019185,0.176398
16.420,665240,7.493851,3.581726,5.219360,0.080072,-0.047830,0.211838
16.440,665260,7.455544,3.912126,5.521029,0.089398,-0.031043,0.206908
16.460,665280,7.599196,4.218584,5.755661,0.102455,0.028911,0.139893
16.480,665300,8.145074,4.438850,5.947197,0.111248,0.092995,0.069547
16.500,665320,8.523358,4.735731,6.282385,0.109916,0.179862,-0.008793
16.520,665340,8.379706,4.793192,6.569689,0.096726,0.295640,-0.067149
16.540,665360,7.948750,4.735731,6.636727,0.073011,0.441795,-0.122972
16.560,665380,7.580042,4.558560,6.521805,0.043567,0.537721,-0.189055
16.580,665400,7.967903,4.156334,6.311116,0.005862,0.507744,-0.231556
16.600,665420,8.197746,3.778050,5.908890,-0.047963,0.399161,-0.119642
16.620,665440,7.958326,3.825934,5.736507,-0.079273,0.241948,0.003864
16.640,665460,7.675811,3.801992,5.683835,-0.088199,0.138694,0.107118
16.660,665480,7.340622,3.821146,5.683835,-0.060221,0.078207,0.167871
16.680,665500,7.196970,3.859453,5.827487,-0.028778,0.038637,0.165740
16.700,665520,7.206547,3.878607,5.947197,-0.015855,0.057023,0.125637
16.720,665540,7.264008,3.964798,5.990293,0.006928,0.068747,0.068481
16.740,665560,7.551312,4.127604,6.019023,0.040103,0.076208,-0.017853
16.760,665580,7.900866,4.137180,6.033388,0.059021,0.071412,-0.088599
16.780,665600,7.972692,4.074931,6.009446,0.053559,0.055158,-0.119908
16.800,665620,7.929596,4.050989,5.908890,0.020118,0.032642,-0.127502
16.820,665640,7.881712,4.070143,5.928043,-0.008660,-0.018253,-0.123239
16.840,665660,7.805098,4.089296,5.846641,-0.031176,-0.051827,-0.106319
16.860,665680,7.718906,4.070143,5.808333,-0.048363,-0.087133,-0.084069
16.880,665700,7.833828,4.036624,5.702989,-0.073277,-0.135763,-0.051161
16.900,665720,7.886500,4.074931,5.612009,-0.098458,-0.208907,-0.010792
16.920,665740,7.843405,4.122815,5.607220,-0.108184,-0.255804,0.006395
16.940,665760,7.805098,4.118027,5.645528,-0.114712,-0.277787,0.011325
16.960,665780,7.915231,4.213795,5.707777,-0.104320,-0.286314,-0.002665
16.980,665800,8.159439,4.362236,5.717354,-0.085401,-0.284049,-0.004930
17.000,665820,8.245630,4.553771,5.975927,-0.079406,-0.277654,-0.000266
17.020,665840,9.193734,4.879383,6.244078,-0.060620,-0.276455,-0.039836
17.040,665860,8.609550,4.558560,6.095637,-0.088865,-0.184925,-0.021184
17.060,665880,9.002198,4.625597,6.258443,-0.091663,-0.235153,-0.015055
17.080,665900,9.011775,4.467580,6.076484,-0.104453,-0.189721,-0.005196
17.100,665920,8.518570,4.328717,6.042965,-0.121374,-0.199181,0.019052
17.120,665940,8.394072,4.137180,5.856217,-0.123772,-0.225427,0.042634
17.140,665960,8.188169,3.921702,5.674258,-0.130966,-0.237285,0.074876
17.160,665980,8.092402,3.983952,5.722142,-0.140692,-0.242081,0.083270
17.180,666000,7.824251,4.031836,5.698200,-0.132832,-0.233821,0.046764
17.200,666020,7.225701,3.773262,5.554548,-0.121640,-0.192253,-0.002265
17.220,666040,6.833052,3.562572,5.449203,-0.129767,-0.181727,-0.041435
17.240,666060,7.187394,3.538630,5.439626,-0.141758,-0.214103,-0.091530
17.260,666080,7.896077,3.711013,5.453991,-0.152949,-0.261799,-0.153749
17.280,666100,8.054094,3.653552,5.506664,-0.169204,-0.269793,-0.196383
17.300,666120,7.843405,3.562572,5.568913,-0.216900,-0.266596,-0.210772
17.320,666140,8.169016,3.768473,5.731719,-0.259801,-0.259534,-0.230757
17.340,666160,8.408437,4.156334,5.928043,-0.287247,-0.181727,-0.251407
17.360,666180,8.537724,4.592079,6.215348,-0.302568,-0.087799,-0.293375
17.380,666200,8.413225,4.630386,6.181829,-0.304966,0.034907,-0.336809
17.400,666220,7.848193,4.616021,6.042965,-0.301636,0.130034,-0.352663
17.420,666240,7.795521,4.606444,5.827487,-0.261933,0.184259,-0.363455
17.440,666260,7.943961,4.510676,5.482722,-0.202778,0.187723,-0.345868
17.460,666280,8.049306,4.453215,5.363012,-0.137495,0.135629,-0.293375
17.480,666300,8.006210,4.237737,5.319916,-0.081271,0.065816,-0.232489
17.500,666320,7.814674,4.050989,5.281609,-0.056490,-0.000533,-0.174133
17.520,666340,7.522582,3.983952,5.295974,-0.064351,-0.041168,-0.129634
17.540,666360,7.383718,4.098873,5.420473,-0.080871,-0.052760,-0.113380
17.560,666380,7.436390,4.180276,5.568913,-0.096992,-0.035972,-0.120175
17.580,666400,7.651869,4.204218,5.683835,-0.116044,-0.003997,-0.123106
17.600,666420,7.857770,4.175488,5.631162,-0.139227,0.036505,-0.107118
17.620,666440,7.934384,4.209007,5.659893,-0.147487,0.062885,-0.071678
17.640,666460,7.920019,4.290410,5.741296,-0.140559,0.083003,-0.038504
17.660,666480,7.996634,4.357447,5.822699,-0.112847,0.094461,-0.012923
17.680,666500,8.001422,4.252102,5.717354,-0.082070,0.095260,0.010525
17.700,666520,8.030152,4.055778,5.659893,-0.057289,0.068214,0.045165
17.720,666540,7.948750,3.964798,5.568913,-0.042900,0.028511,0.081404
17.740,666560,7.972692,3.845088,5.583278,-0.037704,-0.034907,0.120574
17.760,666580,7.996634,3.739743,5.501875,-0.044766,-0.075409,0.172801
17.780,666600,7.891289,3.782839,5.525817,-0.054358,-0.107384,0.200247
17.800,666620,7.915231,3.797204,5.573701,-0.042234,-0.147487,0.200247
17.820,666640,7.905654,3.830723,5.530606,-0.041302,-0.175599,0.210772
17.840,666660,7.910442,3.825934,5.626374,-0.039303,-0.174000,0.229158
17.860,666680,8.283937,4.199430,5.841852,-0.049828,-0.192519,0.228492
17.880,666700,9.787497,4.592079,6.244078,-0.023982,-0.219032,0.177864
17.900,666720,9.212888,4.285621,5.971139,-0.037305,-0.117643,0.207441
17.920,666740,9.160215,4.563348,6.100426,-0.051960,-0.166672,0.206109
17.940,666760,9.452309,4.611232,5.904101,-0.028378,-0.137095,0.175466
17.960,666780,8.978256,4.687847,5.817910,-0.024515,-0.118709,0.147221
17.980,666800,8.504205,4.577713,5.688623,-0.006262,-0.099390,0.114046
18.000,666820,8.226477,4.357447,5.540183,0.012790,-0.078606,0.097525
18.020,666840,8.054094,4.204218,5.386954,0.019452,-0.053692,0.103920
18.040,666860,7.599196,3.936068,5.190629,0.017720,-0.015721,0.130700
18.060,666880,6.986280,3.696647,4.965574,-0.002798,0.003864,0.180129
18.080,666900,7.206547,3.667917,4.759673,-0.009593,-0.013190,0.220098
18.100,666920,7.436390,3.782839,4.649539,-0.014655,-0.026779,0.239150
18.120,666940,7.790732,4.108450,4.884171,0.009193,-0.041968,0.232222
18.140,666960,7.766790,4.204218,5.032612,0.038371,0.016521,0.209972
18.160,666980,7.967903,4.400543,5.214571,0.055824,0.058089,0.160810
18.180,667000,8.556877,4.639963,5.420473,0.073410,0.109250,0.087133
18.200,667020,8.690952,4.797980,5.583278,0.087799,0.186391,0.007461
18.220,667040,8.360553,4.745308,5.698200,0.088332,0.267262,-0.073144
18.240,667060,8.202535,4.544195,5.655105,0.072345,0.324018,-0.148020
18.260,667080,8.245630,4.276044,5.430049,0.036239,0.335609,-0.189855
18.280,667100,8.508993,4.046201,5.171476,-0.001732,0.291510,-0.160943
18.300,667120,8.341399,3.787627,4.960786,-0.057156,0.230357,-0.076475
18.320,667140,8.202535,3.677494,4.917690,-0.101655,0.165074,0.000133
18.340,667160,7.963115,3.667917,4.884171,-0.143623,0.126570,0.050095
18.360,667180,7.852982,3.754108,4.874595,-0.162142,0.101389,0.058888
18.380,667200,8.025364,3.916914,4.912902,-0.154681,0.097259,0.031842
18.400,667220,8.082825,4.046201,4.979939,-0.142025,0.106185,-0.018786
18.420,667240,8.073248,4.022259,5.013458,-0.113913,0.105253,-0.071945
18.440,667260,8.039729,3.998317,5.075707,-0.113646,0.114579,-0.099257
18.460,667280,8.221688,4.108450,5.118803,-0.117110,0.114446,-0.117910
18.480,667300,8.346188,4.209007,5.099649,-0.114712,0.099257,-0.143224
18.500,667320,8.274361,4.209007,5.094861,-0.114312,0.071812,-0.149086
18.520,667340,8.116343,4.127604,5.109226,-0.116444,0.054225,-0.136296
18.540,667360,8.111555,4.146757,5.109226,-0.123905,0.028511,-0.109783
18.560,667380,8.106767,4.204218,5.166687,-0.128568,0.010925,-0.075409
18.580,667400,8.216900,4.213795,5.152322,-0.120974,-0.006662,-0.038237
18.600,667420,8.317456,4.108450,5.123591,-0.117776,-0.032642,0.007061
18.620,667440,8.355764,4.012682,5.070919,-0.120708,-0.060887,0.057289
18.640,667460,8.202535,4.003105,5.166687,-0.132432,-0.091530,0.092329
18.660,667480,8.236053,4.094085,5.315128,-0.132432,-0.110315,0.092063
18.680,667500,8.259995,4.170700,5.473145,-0.131366,-0.106585,0.080605
18.700,667520,9.102755,4.491522,5.741296,-0.126303,-0.128302,0.040369
18.720,667540,9.437943,4.323928,5.635951,-0.115778,-0.103787,0.020651
18.740,667560,9.198523,4.419696,5.813122,-0.143490,-0.136962,0.023715
18.760,667580,9.466674,4.462792,5.880159,-0.136828,-0.121640,0.010792
18.780,667600,8.887277,4.352659,5.770026,-0.145355,-0.099524,0.002398
18.800,667620,8.729259,4.185065,5.698200,-0.141758,-0.092196,-0.004930
18.820,667640,8.288726,3.835511,5.564125,-0.148286,-0.074609,0.001599
18.840,667660,8.082825,3.677494,5.521029,-0.161876,-0.088066,0.008394
18.860,667680,7.814674,3.653552,5.401319,-0.178530,-0.090464,0.003997
18.880,667700,7.560889,3.687071,5.453991,-0.187190,-0.099524,-0.019585
18.900,667720,7.484274,3.624821,5.401319,-0.183193,-0.112181,-0.051827
18.920,667740,7.393295,3.466804,5.262455,-0.182394,-0.129234,-0.072478
18.940,667760,7.632715,3.433285,5.252879,-0.186124,-0.183459,-0.089798
18.960,667780,7.886500,3.423708,5.315128,-0.195583,-0.219965,-0.103387
18.980,667800,8.058883,3.552995,5.492299,-0.212237,-0.223962,-0.112047
19.000,667820,8.001422,3.711013,5.679047,-0.224361,-0.191986,-0.131766
19.020,667840,8.192958,3.945644,5.899313,-0.228358,-0.154415,-0.171868
19.040,667860,8.456321,4.256891,6.129156,-0.230357,-0.079139,-0.217433
19.060,667880,8.532935,4.419696,6.277597,-0.226360,0.032109,-0.245545
19.080,667900,8.350976,4.381389,6.282385,-0.219165,0.144956,-0.251940
19.100,667920,8.202535,4.252102,6.129156,-0.210505,0.232888,-0.242747
19.120,667940,8.197746,4.137180,5.822699,-0.187856,0.269394,-0.216634
19.140,667960,8.154651,3.983952,5.578490,-0.153349,0.246877,-0.187057
19.160,667980,8.068460,3.787627,5.430049,-0.116977,0.189188,-0.153482
19.180,668000,7.958326,3.715801,5.372589,-0.098858,0.131366,-0.115245
19.200,668020,7.709330,3.711013,5.453991,-0.079939,0.097126,-0.091796
19.220,668040,7.637504,3.696647,5.511452,-0.065949,0.073544,-0.093395
19.240,668060,7.709330,3.739743,5.568913,-0.061153,0.065683,-0.106452
19.260,668080,7.862558,3.811569,5.626374,-0.057023,0.063551,-0.112314
19.280,668100,8.015787,3.830723,5.741296,-0.059688,0.065683,-0.114712
19.300,668120,8.125920,3.859453,5.717354,-0.066882,0.075942,-0.109516
19.320,668140,8.145074,3.964798,5.707777,-0.068614,0.081404,-0.099923
19.340,668160,8.116343,3.969586,5.731719,-0.058222,0.092462,-0.082870
19.360,668180,8.116343,3.912126,5.683835,-0.044766,0.098058,-0.052360
19.380,668200,8.078036,3.859453,5.602432,-0.030110,0.099790,-0.017587
19.400,668220,7.987057,3.806781,5.559336,-0.014789,0.074343,0.006262
19.420,668240,8.030152,3.725378,5.497087,-0.005196,0.037838,0.019319
19.440,668260,8.068460,3.639187,5.430049,-0.003331,-0.001466,0.047164
19.460,668280,7.915231,3.543418,5.372589,-0.008926,-0.031709,0.077807
19.480,668300,7.757214,3.562572,5.386954,-0.016254,-0.060887,0.094727
19.500,668320,7.843405,3.706224,5.506664,-0.015188,-0.071945,0.095527
19.520,668340,7.886500,3.840300,5.592855,-0.011591,-0.048763,0.099790
19.540,668360,7.785944,3.983952,5.736507,-0.006795,-0.015322,0.110449
19.560,668380,8.877700,4.620809,6.392519,0.002132,-0.046631,0.097659
19.580,668400,10.141838,4.529830,6.368577,0.035573,0.041435,0.113247
19.600,668420,8.906430,4.481946,6.282385,-0.003597,0.075675,0.190254
19.620,668440,9.543288,4.692636,6.373365,0.047297,0.031975,0.171335
19.640,668460,8.868123,4.596867,6.291962,0.049296,0.076741,0.139093
19.660,668480,8.571242,4.582502,6.253655,0.048763,0.074343,0.108983
19.680,668500,8.063671,4.400543,5.913678,0.041435,0.120308,0.082870
19.700,668520,7.460332,4.055778,5.544971,0.029311,0.128035,0.083403
19.720,668540,6.914454,3.663129,5.195418,0.016521,0.103654,0.101789
19.740,668560,6.804321,3.490746,4.903325,-0.002132,0.032508,0.141092
19.760,668580,7.541735,3.615245,4.874595,-0.000799,-0.049562,0.199980
19.780,668600,7.934384,3.864242,5.166687,0.005063,-0.068081,0.249675
19.800,668620,7.829040,4.108450,5.425261,0.026646,-0.033441,0.245678
19.820,668640,7.666234,4.419696,5.535394,0.046098,0.014123,0.183459
19.840,668660,8.164227,4.946421,5.774815,0.080605,0.056357,0.066083
19.860,668680,8.341399,5.291186,6.215348,0.124971,0.157746,-0.088466
19.880,668700,7.690176,5.286397,6.536170,0.150818,0.318023,-0.217433
19.900,668720,7.436390,5.032612,6.703765,0.142824,0.458582,-0.302835
19.920,668740,8.135497,4.563348,6.263232,0.116844,0.519335,-0.314159
19.940,668760,8.925584,4.218584,5.674258,0.071545,0.429138,-0.182127
19.960,668780,8.609550,3.998317,5.367800,0.028245,0.286181,0.007861
19.980,668800,7.953538,3.845088,5.391742,0.000133,0.149086,0.143224
20.000,668820,7.675811,3.739743,5.339070,-0.021051,0.076075,0.210239
20.020,668840,7.340622,3.739743,5.281609,-0.038104,0.058888,0.230623
20.040,668860,7.326257,3.902549,5.391742,-0.037971,0.057423,0.179063
20.060,668880,7.393295,3.969586,5.463568,-0.029977,0.080205,0.098991
20.080,668900,7.474698,4.027047,5.463568,-0.029044,0.105386,0.025580
20.100,668920,7.800309,4.170700,5.506664,-0.021051,0.121507,-0.040769
20.120,668940,8.106767,4.232949,5.530606,-0.011191,0.125104,-0.083936
20.140,668960,8.207323,4.218584,5.568913,-0.012790,0.108850,-0.107384
20.160,668980,8.370130,4.118027,5.487510,-0.027046,0.085401,-0.101655
20.180,669000,8.140285,4.127604,5.444415,-0.044499,0.051427,-0.096726
20.200,669020,7.972692,4.156334,5.468357,-0.058355,0.012790,-0.120974
20.220,669040,7.714118,4.070143,5.511452,-0.082470,-0.002665,-0.142957
20.240,669060,7.742848,3.993528,5.430049,-0.118975,-0.017587,-0.143224
20.260,669080,7.814674,4.017470,5.386954,-0.155614,-0.047297,-0.127769
20.280,669100,7.862558,4.151546,5.367800,-0.186923,-0.078207,-0.104453
20.300,669120,7.900866,4.280833,5.434838,-0.198115,-0.091130,-0.079939
20.320,669140,8.097190,4.390966,5.501875,-0.197182,-0.105919,-0.053292
20.340,669160,8.322245,4.520253,5.612009,-0.188122,-0.110182,-0.026513
20.360,669180,8.307879,4.611232,5.717354,-0.167472,-0.108450,-0.011325
20.380,669200,9.414001,5.037400,6.244078,-0.154681,-0.168937,-0.034640
20.400,669220,9.428367,4.726154,6.019023,-0.154948,-0.082737,-0.023982
20.420,669240,8.848969,4.683059,6.162675,-0.189855,-0.137761,-0.008394
20.440,669260,9.246407,4.587290,5.932832,-0.180395,-0.133498,-0.003997
20.460,669280,8.451532,4.424485,5.822699,-0.197049,-0.138028,0.008527
20.480,669300,8.169016,4.266468,5.774815,-0.188922,-0.152816,0.030510
20.500,669320,7.714118,3.993528,5.506664,-0.182926,-0.129368,0.073943
20.520,669340,7.589619,4.074931,5.535394,-0.172268,-0.140825,0.101522
20.540,669360,7.671022,4.165911,5.525817,-0.142424,-0.122440,0.093928
20.560,669380,7.393295,4.180276,5.559336,-0.117377,-0.104853,0.059421
20.580,669400,7.455544,4.204218,5.631162,-0.085268,-0.098058,-0.004663
20.600,669420,7.407660,4.108450,5.621585,-0.061020,-0.073544,-0.065683
20.620,669440,7.249643,3.892972,5.655105,-0.051427,-0.066482,-0.114046
20.640,669460,7.158663,3.677494,5.659893,-0.075009,-0.067948,-0.148020
20.660,669480,7.220912,3.624821,5.655105,-0.122306,-0.092729,-0.162276
20.680,669500,7.766790,3.758897,5.702989,-0.172668,-0.129900,-0.169737
20.700,669520,8.001422,3.859453,5.793968,-0.216234,-0.134031,-0.158678
20.720,669540,7.872135,3.964798,5.918467,-0.251008,-0.123372,-0.155214
20.740,669560,7.915231,4.065354,6.057330,-0.275256,-0.083003,-0.172534
20.760,669580,7.963115,4.194642,6.234501,-0.294175,-0.005729,-0.197582
20.780,669600,8.121132,4.357447,6.363788,-0.307631,0.083536,-0.230757
20.800,669620,8.087613,4.434062,6.378153,-0.301236,0.172801,-0.276188
20.820,669640,7.738060,4.472369,6.291962,-0.277521,0.238484,-0.312827
20.840,669660,7.738060,4.434062,6.172252,-0.240349,0.260600,-0.327349
20.860,669680,7.991845,4.352659,5.947197,-0.196649,0.231023,-0.319888
20.880,669700,8.097190,4.252102,5.784391,-0.161476,0.155881,-0.274856
20.900,669720,7.852982,4.156334,5.731719,-0.135496,0.081138,-0.202911
20.920,669740,7.560889,4.065354,5.750873,-0.118309,0.021583,-0.151617
20.940,669760,7.283162,4.031836,5.793968,-0.106452,-0.006795,-0.137628
20.960,669780,7.331046,4.089296,5.832275,-0.099524,-0.013856,-0.141358
20.980,669800,7.412448,4.046201,5.789180,-0.110315,-0.007061,-0.152150
21.000,669820,7.589619,4.003105,5.837064,-0.130433,-0.008260,-0.143224
21.020,669840,7.671022,4.060566,5.793968,-0.151617,0.006129,-0.116844
21.040,669860,7.594408,4.194642,5.884948,-0.153616,0.015455,-0.105253
21.060,669880,7.603985,4.228160,5.942409,-0.137361,0.016787,-0.094061
21.080,669900,7.704541,4.223372,5.942409,-0.116178,0.020118,-0.065017
21.100,669920,7.857770,4.165911,5.861006,-0.100190,0.007328,-0.020518
21.120,669940,8.020576,4.122815,5.851429,-0.090864,-0.029577,0.033308
21.140,669960,8.121132,4.055778,5.841852,-0.085268,-0.062885,0.087000
21.160,669980,8.111555,4.012682,5.741296,-0.081404,-0.100323,0.126436
21.180,670000,7.881712,3.969586,5.726931,-0.077274,-0.122573,0.147487
21.200,670020,7.738060,3.988740,5.702989,-0.067948,-0.134564,0.156014
21.220,670040,7.762002,4.007894,5.698200,-0.060487,-0.138827,0.164541
21.240,670060,7.934384,4.141969,5.875371,-0.058622,-0.144689,0.183459
21.260,670080,9.332599,4.592079,6.392519,-0.039836,-0.179729,0.171868
21.280,670100,8.820239,4.185065,6.033388,-0.046631,-0.067015,0.231423
21.300,670120,9.016563,4.601655,6.406884,-0.082337,-0.137495,0.258602
21.320,670140,9.409213,4.515464,6.306327,-0.057423,-0.075009,0.237418
21.340,670160,8.676587,4.352659,6.110003,-0.082737,-0.061286,0.222763
21.360,670180,8.547300,4.290410,5.985504,-0.079539,-0.063951,0.193985
21.380,670200,8.164227,4.156334,5.679047,-0.073677,-0.058089,0.165473
21.400,670220,7.776367,4.141969,5.683835,-0.054758,-0.078606,0.124305
21.420,670240,7.335834,3.993528,5.592855,-0.036239,-0.051694,0.098058
21.440,670260,6.737284,3.907337,5.544971,-0.041701,-0.006395,0.112447
21.460,670280,6.904878,3.821146,5.334281,-0.033308,0.019319,0.141492
21.480,670300,7.163452,3.840300,5.003881,-0.021983,0.000133,0.182527
21.500,670320,7.690176,4.031836,5.152322,0.016654,-0.034374,0.214636
21.520,670340,7.690176,4.189853,5.363012,0.049828,0.001599,0.223296
21.540,670360,7.728483,4.390966,5.559336,0.087533,0.051694,0.189055
21.560,670380,7.867347,4.630386,5.707777,0.132032,0.117776,0.115378
21.580,670400,7.948750,4.879383,5.985504,0.169603,0.199314,0.010525
21.600,670420,7.872135,5.046977,6.330269,0.190787,0.314825,-0.105386
21.620,670440,7.838616,5.046977,6.411672,0.186257,0.454985,-0.197982
21.640,670460,7.790732,4.711789,6.215348,0.169070,0.539986,-0.244746
21.660,670480,8.106767,4.333505,5.803545,0.151617,0.506412,-0.188655
21.680,670500,8.236053,4.103662,5.645528,0.120708,0.413017,-0.059421
21.700,670520,7.781156,4.003105,5.669470,0.087533,0.322020,0.045299
21.720,670540,7.599196,4.003105,5.698200,0.062752,0.244879,0.095793
21.740,670560,7.599196,3.883395,5.544971,0.039037,0.191986,0.119908
21.760,670580,7.613562,3.859453,5.540183,0.008527,0.137361,0.116711
21.780,670600,7.699753,3.916914,5.588067,-0.010525,0.098724,0.086600
21.800,670620,7.747637,4.027047,5.626374,-0.024648,0.077008,0.033974
21.820,670640,7.805098,4.137180,5.679047,-0.037038,0.059688,-0.028911
21.840,670660,7.924808,4.232949,5.621585,-0.052227,0.028112,-0.093662
21.860,670680,8.068460,4.323928,5.679047,-0.061953,-0.008793,-0.150285
21.880,670700,8.130709,4.261679,5.592855,-0.072211,-0.036639,-0.177730
21.900,670720,8.010999,4.237737,5.631162,-0.103521,-0.058089,-0.169470
21.920,670740,7.862558,4.232949,5.602432,-0.137495,-0.083136,-0.149619
21.940,670760,7.934384,4.252102,5.487510,-0.168138,-0.117243,-0.117377
21.960,670780,7.963115,4.252102,5.315128,-0.191187,-0.152417,-0.059021
21.980,670800,7.800309,4.242526,5.276821,-0.212504,-0.185591,-0.005596
22.000,670820,7.709330,4.209007,5.267244,-0.214103,-0.202778,0.035440
22.020,670840,7.603985,4.132392,5.339070,-0.223695,-0.199980,0.078606
22.040,670860,7.872135,4.194642,5.377377,-0.229024,-0.217966,0.100723
22.060,670880,8.145074,4.247314,5.377377,-0.227159,-0.234887,0.104320
22.080,670900,8.255207,4.501099,5.698200,-0.227959,-0.268994,0.090864
22.100,670920,9.710882,4.975151,6.263232,-0.190654,-0.295374,0.027979
22.120,670940,9.040505,4.639963,6.234501,-0.208374,-0.194518,0.010392
22.140,670960,9.083601,4.754885,6.359000,-0.227959,-0.203311,-0.009326
22.160,670980,8.676587,4.572925,6.282385,-0.238617,-0.135763,-0.041968
22.180,671000,8.441956,4.429273,6.268020,-0.242348,-0.109783,-0.060753
22.200,671020,8.010999,4.175488,6.129156,-0.246211,-0.048363,-0.040502
22.220,671040,7.781156,3.969586,6.038177,-0.243946,-0.032775,0.006928
22.240,671060,7.814674,3.845088,5.937620,-0.230357,-0.043833,0.051427
22.260,671080,7.661446,3.778050,5.827487,-0.220231,-0.066482,0.078873
22.280,671100,7.551312,3.720589,5.655105,-0.198515,-0.120175,0.068747
22.300,671120,7.474698,3.620033,5.568913,-0.171469,-0.191720,0.023315
22.320,671140,7.498640,3.366248,5.712565,-0.157213,-0.256470,-0.017453
22.340,671160,7.546524,3.347094,5.870583,-0.180928,-0.269527,-0.045832
22.360,671180,7.503428,3.481169,5.985504,-0.215968,-0.253406,-0.096992
22.380,671200,7.714118,3.672705,6.023811,-0.245279,-0.237818,-0.166539
22.400,671220,7.905654,3.811569,6.172252,-0.268727,-0.183193,-0.237685
22.420,671240,7.771579,3.892972,6.272809,-0.295640,-0.100989,-0.292176
22.440,671260,7.838616,4.108450,6.449979,-0.323485,-0.015721,-0.343870
22.460,671280,7.943961,4.276044,6.512228,-0.340939,0.082204,-0.385038
22.480,671300,7.920019,4.314352,6.440403,-0.346668,0.163208,-0.406489
22.500,671320,8.159439,4.223372,6.009446,-0.319489,0.181727,-0.380508
22.520,671340,8.279149,3.988740,5.722142,-0.284315,0.128968,-0.313493
22.540,671360,8.293514,4.003105,5.597643,-0.244613,0.037438,-0.240083
22.560,671380,8.092402,3.988740,5.573701,-0.193718,-0.029711,-0.189322
22.580,671400,7.876924,3.907337,5.655105,-0.144023,-0.072211,-0.163608
22.600,671420,7.632715,3.797204,5.669470,-0.117377,-0.074476,-0.153349
22.620,671440,7.589619,3.749320,5.722142,-0.116977,-0.045965,-0.147887
22.640,671460,7.642292,3.768473,5.770026,-0.132832,-0.014256,-0.153083
22.660,671480,7.723695,3.835511,5.846641,-0.151884,0.022383,-0.156413
22.680,671500,7.848193,3.936068,5.928043,-0.162409,0.062352,-0.140292
22.700,671520,7.829040,4.003105,5.923255,-0.155348,0.102055,-0.117377
22.720,671540,7.776367,4.060566,5.918467,-0.122706,0.120841,-0.104587
22.740,671560,7.862558,4.036624,5.966351,-0.075142,0.127769,-0.091530
22.760,671580,7.833828,3.964798,5.865794,-0.039836,0.126170,-0.070479
22.780,671600,7.833828,3.883395,5.813122,-0.005596,0.101789,-0.050761
22.800,671620,7.666234,3.778050,5.817910,0.012790,0.081937,-0.028378
22.820,671640,7.608773,3.758897,5.884948,0.017720,0.055025,-0.021051
22.840,671660,7.723695,3.778050,5.913678,0.005063,0.032375,-0.014922
22.860,671680,7.857770,3.754108,5.865794,-0.016521,0.010925,0.010925
22.880,671700,7.819463,3.787627,5.770026,-0.042234,-0.019851,0.043833
22.900,671720,7.881712,3.945644,5.726931,-0.051028,-0.055957,0.061420
22.920,671740,7.953538,4.079720,5.841852,-0.041835,-0.075276,0.076208
22.940,671760,8.202535,4.405331,6.148310,-0.036639,-0.105652,0.097659
22.960,671780,9.509769,4.855441,6.607996,-0.015188,-0.112447,0.096060
22.980,671800,8.647857,4.730943,6.392519,-0.028245,0.011458,0.127502
23.000,671820,8.968679,4.994305,6.651093,-0.013190,-0.040769,0.116178
23.020,671840,9.126697,4.912902,6.157887,0.034507,0.019452,0.130966
23.040,671860,8.580819,4.778827,5.932832,0.097126,-0.026380,0.160277
23.060,671880,8.269572,4.505888,5.659893,0.158012,-0.069413,0.180129
23.080,671900,7.714118,4.381389,5.679047,0.182260,-0.083403,0.194251
23.100,671920,7.378930,4.228160,5.731719,0.191720,-0.072078,0.199847
23.120,671940,6.995857,4.094085,5.554548,0.165074,-0.032508,0.206642
23.140,671960,7.024588,4.146757,5.482722,0.122573,-0.027845,0.212371
23.160,671980,7.369353,4.165911,5.204995,0.096193,-0.011458,0.246478
23.180,672000,7.536947,4.256891,5.085284,0.087666,-0.037305,0.283916
23.200,672020,7.824251,4.333505,5.214571,0.114712,-0.063551,0.302435
23.220,672040,7.723695,4.367024,5.367800,0.131233,-0.020784,0.303900
23.240,672060,7.862558,4.481946,5.482722,0.148153,0.016121,0.263398
23.260,672080,8.049306,4.616021,5.487510,0.165606,0.063152,0.185458
23.280,672100,8.082825,4.841076,5.674258,0.186391,0.121773,0.083136
23.300,672120,8.073248,4.912902,5.865794,0.198914,0.208240,-0.019319
23.320,672140,7.977480,4.730943,5.803545,0.186790,0.300570,-0.095527
23.340,672160,7.771579,4.448427,5.674258,0.146688,0.360657,-0.125504
23.360,672180,7.848193,4.141969,5.592855,0.095527,0.372381,-0.107784
23.380,672200,7.929596,3.926491,5.477933,0.032242,0.361723,-0.042234
23.400,672220,7.915231,3.864242,5.401319,-0.024648,0.320821,0.044100
23.420,672240,7.838616,3.960010,5.425261,-0.065150,0.281651,0.103787
23.440,672260,7.824251,4.027047,5.449203,-0.070613,0.242747,0.123106
23.460,672280,7.852982,4.007894,5.439626,-0.065550,0.207708,0.116311
23.480,672300,7.809886,3.998317,5.458780,-0.058888,0.185858,0.092063
23.500,672320,7.833828,4.041412,5.497087,-0.052093,0.167338,0.051694
23.520,672340,8.020576,4.074931,5.544971,-0.053559,0.149885,0.000533
23.540,672360,8.145074,4.094085,5.583278,-0.062086,0.135363,-0.041035
23.560,672380,8.140285,4.060566,5.564125,-0.077407,0.108317,-0.073144
23.580,672400,8.101978,4.055778,5.473145,-0.095926,0.075542,-0.091663
23.600,672420,8.044518,4.084508,5.453991,-0.117776,0.041435,-0.098191
23.620,672440,7.924808,4.103662,5.444415,-0.136828,0.013856,-0.104720
23.640,672460,7.910442,4.127604,5.430049,-0.150551,-0.010392,-0.094727
23.660,672480,7.900866,4.113238,5.324705,-0.158678,-0.032375,-0.063018
23.680,672500,7.809886,4.065354,5.276821,-0.159478,-0.052493,-0.020384
23.700,672520,7.766790,4.046201,5.295974,-0.156280,-0.073810,0.023982
23.720,672540,7.809886,4.017470,5.300763,-0.152550,-0.084202,0.060487
23.740,672560,7.881712,4.070143,5.415684,-0.148553,-0.100723,0.071145
23.760,672580,8.054094,4.098873,5.511452,-0.147221,-0.123772,0.057023
23.780,672600,8.087613,4.089296,5.568913,-0.154415,-0.138161,0.050761
23.800,672620,8.657434,4.462792,5.918467,-0.167072,-0.205842,0.030510
23.820,672640,9.993398,4.793192,6.076484,-0.145222,-0.236619,-0.025847
23.840,672660,9.414001,4.730943,6.124368,-0.168671,-0.236752,-0.046098
23.860,672680,9.648633,4.821922,6.272809,-0.166672,-0.266862,-0.050095
23.880,672700,9.030929,4.568137,5.999869,-0.190254,-0.218632,-0.030110
23.900,672720,8.690952,4.529830,5.932832,-0.193718,-0.212770,-0.002398
23.920,672740,8.207323,4.343082,5.822699,-0.178796,-0.164141,0.025847
23.940,672760,7.776367,4.118027,5.750873,-0.162409,-0.130833,0.055824
23.960,672780,7.580042,3.869030,5.631162,-0.145089,-0.087400,0.085534
23.980,672800,7.412448,3.840300,5.544971,-0.135629,-0.076075,0.087266
24.000,672820,7.503428,3.859453,5.468357,-0.118975,-0.098058,0.028778
24.020,672840,7.407660,3.730166,5.353435,-0.099657,-0.130833,-0.044632
24.040,672860,7.565677,3.462016,5.358223,-0.094328,-0.187590,-0.095926
24.060,672880,7.795521,3.323152,5.382165,-0.119242,-0.228225,-0.119242
24.080,672900,7.623138,3.342306,5.487510,-0.163208,-0.240616,-0.141758
24.100,672920,7.675811,3.552995,5.544971,-0.199314,-0.234620,-0.187057
24.120,672940,7.762002,3.696647,5.650316,-0.225294,-0.182660,-0.239017
24.140,672960,7.704541,3.907337,5.913678,-0.255404,-0.100989,-0.296706
24.160,672980,7.704541,4.084508,6.181829,-0.275922,0.016254,-0.354928
24.180,673000,7.747637,4.228160,6.416461,-0.303900,0.134963,-0.408620
24.200,673020,7.824251,4.362236,6.526594,-0.328681,0.236885,-0.449256
24.220,673040,8.073248,4.462792,6.335058,-0.329747,0.275655,-0.459381
24.240,673060,8.542512,4.458004,5.995081,-0.293242,0.214103,-0.410885
24.260,673080,8.571242,4.319140,5.793968,-0.254738,0.104054,-0.312427
24.280,673100,8.293514,4.256891,5.755661,-0.208374,-0.007461,-0.227825
24.300,673120,7.886500,4.103662,5.774815,-0.172268,-0.071945,-0.176265
24.320,673140,7.556100,4.012682,5.741296,-0.156547,-0.094994,-0.149885
24.340,673160,7.450756,3.964798,5.679047,-0.149485,-0.079139,-0.139626
24.360,673180,7.393295,3.936068,5.645528,-0.145888,-0.040902,-0.134297
24.380,673200,7.235278,4.022259,5.755661,-0.152150,0.012657,-0.134164
24.400,673220,7.369353,4.118027,5.798757,-0.141225,0.071812,-0.137628
24.420,673240,7.642292,4.237737,5.746084,-0.121507,0.123106,-0.119775
24.440,673260,7.747637,4.285621,5.851429,-0.084868,0.136162,-0.108717
24.460,673280,7.814674,4.247314,5.856217,-0.045165,0.132299,-0.092196
24.480,673300,7.781156,4.180276,5.932832,-0.013057,0.120574,-0.049162
24.500,673320,7.891289,4.170700,5.841852,0.011858,0.082870,0.000933
24.520,673340,7.900866,4.127604,5.726931,0.037305,0.034907,0.044366
24.540,673360,7.857770,4.060566,5.726931,0.057689,-0.017587,0.089665
24.560,673380,7.733272,4.012682,5.765238,0.062885,-0.047830,0.130300
24.580,673400,7.733272,4.055778,5.770026,0.058622,-0.065417,0.160410
24.600,673420,7.900866,4.108450,5.707777,0.057689,-0.086467,0.192119
24.620,673440,7.967903,4.189853,5.607220,0.060087,-0.091397,0.228358
24.640,673460,7.972692,4.213795,5.640739,0.052626,-0.091530,0.254605
24.660,673480,7.785944,4.180276,5.707777,0.063951,-0.085002,0.282983
24.680,673500,8.820239,4.774038,6.248867,0.084735,-0.165207,0.269394
24.700,673520,9.734824,4.539406,6.114791,0.114312,-0.077807,0.268061
24.720,673540,9.227253,4.539406,6.143522,0.064084,-0.093262,0.288845
24.740,673560,9.782708,4.352659,6.095637,0.057822,-0.116178,0.289378
24.760,673580,9.255983,4.386178,5.784391,0.006928,-0.120441,0.296706
24.780,673600,8.805874,4.381389,5.717354,-0.004397,-0.134430,0.286047
24.800,673620,8.106767,4.108450,5.434838,-0.003730,-0.117643,0.258735
24.820,673640,7.671022,3.902549,5.315128,-0.019319,-0.111781,0.234354
24.840,673660,7.287950,3.821146,5.224148,-0.028645,-0.067681,0.215302
24.860,673680,7.139510,3.811569,5.133168,-0.036639,-0.026646,0.203444
24.880,673700,7.378930,3.677494,4.807557,-0.027979,0.007861,0.214902
24.900,673720,7.752425,3.758897,4.702212,-0.010259,-0.011191,0.245145
24.920,673740,8.159439,3.931279,4.912902,0.017187,-0.028645,0.248743
24.940,673760,7.939173,4.017470,5.061342,0.029977,0.006928,0.224495
24.960,673780,8.178593,4.189853,5.176264,0.045432,0.042900,0.180395
24.980,673800,8.441956,4.467580,5.367800,0.074210,0.086334,0.115378
25.000,673820,8.427590,4.587290,5.635951,0.117910,0.128168,0.030243
25.020,673840,8.595184,4.697424,5.779603,0.145089,0.162409,-0.056757
25.040,673860,8.729259,4.587290,5.832275,0.147620,0.217034,-0.113113
25.060,673880,8.049306,4.343082,5.702989,0.118176,0.287113,-0.131100
25.080,673900,8.015787,4.146757,5.607220,0.096859,0.290577,-0.147753
25.100,673920,8.087613,3.940856,5.353435,0.057156,0.304167,-0.102988
25.120,673940,7.977480,3.825934,5.195418,0.019985,0.255937,-0.026779
25.140,673960,8.236053,3.830723,5.166687,0.006262,0.168138,0.036505
25.160,673980,8.274361,3.672705,5.013458,0.008260,0.113113,0.092596
25.180,674000,7.814674,3.711013,5.109226,0.001466,0.054625,0.122173
25.200,674020,7.953538,3.821146,5.166687,0.003997,0.017587,0.095127
25.220,674040,8.073248,3.936068,5.051765,0.005196,-0.002931,0.048230
25.240,674060,8.178593,4.060566,5.080496,0.003730,-0.030110,-0.005196
25.260,674080,8.394072,4.103662,5.133168,-0.002531,-0.050628,-0.046897
25.280,674100,8.360553,4.031836,4.984728,-0.026513,-0.044632,-0.059155
25.300,674120,8.212111,3.964798,4.874595,-0.061819,-0.065150,-0.063418
25.320,674140,8.274361,3.964798,4.793192,-0.093129,-0.112714,-0.071812
25.340,674160,8.159439,3.897760,4.812346,-0.125371,-0.144956,-0.069547
25.360,674180,8.087613,3.921702,4.898537,-0.162542,-0.158545,-0.051427
25.380,674200,8.030152,4.027047,4.932055,-0.202511,-0.156014,-0.030910
25.400,674220,7.996634,4.151546,4.932055,-0.223562,-0.162009,-0.026913
25.420,674240,8.403648,4.276044,5.037400,-0.227426,-0.179329,-0.039969
25.440,674260,8.422802,4.323928,5.109226,-0.229291,-0.175865,-0.033708
25.460,674280,8.350976,4.606444,5.501875,-0.239283,-0.198115,-0.021583
25.480,674300,9.639056,4.884171,5.746084,-0.190521,-0.201179,-0.045698
25.500,674320,8.724471,4.520253,5.477933,-0.197982,-0.152550,0.005862
25.520,674340,9.476251,4.668694,5.612009,-0.156547,-0.275389,0.021850
25.540,674360,9.576807,4.443638,5.521029,-0.152816,-0.261000,0.061020
25.560,674380,9.083601,4.156334,5.463568,-0.178130,-0.265130,0.117776
25.580,674400,8.580819,3.892972,5.372589,-0.201046,-0.229291,0.174933
25.600,674420,8.159439,3.787627,5.425261,-0.219032,-0.183193,0.210239
25.620,674440,8.255207,3.811569,5.492299,-0.210505,-0.137228,0.201046
25.640,674460,8.010999,3.749320,5.521029,-0.213037,-0.064084,0.167472
25.660,674480,7.934384,3.620033,5.401319,-0.209306,-0.021450,0.113646
25.680,674500,7.766790,3.476381,5.166687,-0.207574,-0.029444,0.067948
25.700,674520,7.905654,3.404555,5.008670,-0.195184,-0.095260,0.030110
25.720,674540,8.418014,3.394978,5.008670,-0.143490,-0.166672,0.021583
25.740,674560,8.480263,3.308787,5.142745,-0.113113,-0.172668,0.049429
25.760,674580,8.279149,3.270479,5.329493,-0.123106,-0.121374,0.072877
25.780,674600,8.336611,3.361459,5.521029,-0.141225,-0.075009,0.041302
25.800,674620,8.628703,3.543418,5.717354,-0.158145,-0.019585,-0.034374
25.820,674640,8.887277,3.754108,5.894525,-0.184658,0.054092,-0.129234
25.840,674660,8.422802,3.720589,6.028600,-0.217034,0.171202,-0.240482
25.860,674680,8.283937,3.706224,5.932832,-0.234753,0.212904,-0.309230
25.880,674700,8.595184,3.744531,5.564125,-0.221830,0.213436,-0.343070
25.900,674720,8.777143,3.691859,5.339070,-0.186923,0.168404,-0.327083
25.920,674740,8.777143,3.581726,5.176264,-0.142691,0.096459,-0.262199
25.940,674760,8.633492,3.519476,5.056554,-0.113380,0.027845,-0.182260
25.960,674780,8.255207,3.481169,4.975151,-0.081538,-0.018919,-0.119242
25.980,674800,8.025364,3.500323,5.042189,-0.047164,-0.032508,-0.094461
26.000,674820,8.068460,3.457227,5.114015,-0.025047,-0.020917,-0.085668
26.020,674840,8.231265,3.409343,5.104438,-0.034640,-0.002265,-0.079273
26.040,674860,8.441956,3.404555,5.114015,-0.053426,0.011858,-0.069547
26.060,674880,8.403648,3.394978,5.013458,-0.074743,0.027312,-0.053292
26.080,674900,8.236053,3.442862,5.032612,-0.083270,0.040902,-0.041302
26.100,674920,8.259995,3.423708,5.085284,-0.078207,0.050495,-0.032908
26.120,674940,8.408437,3.394978,5.018247,-0.068614,0.050761,-0.016121
26.140,674960,8.394072,3.361459,5.008670,-0.060753,0.047830,0.015721
26.160,674980,8.192958,3.438074,5.013458,-0.044899,0.044499,0.035440
26.180,675000,8.226477,3.576937,5.181053,-0.023582,0.034507,0.028245
26.200,675020,8.336611,3.538630,5.200206,-0.012923,0.038237,0.024515
26.220,675040,8.432379,3.495534,5.118803,-0.016920,0.023982,0.039170
26.240,675060,8.667010,3.572149,5.123591,-0.022916,-0.019985,0.060887
26.260,675080,8.868123,3.596091,5.046977,-0.026380,-0.050894,0.088199
26.280,675100,8.303091,3.639187,5.037400,-0.050894,-0.068214,0.110449
26.300,675120,8.930372,4.079720,5.439626,-0.057156,-0.147620,0.115911
26.320,675140,9.969456,4.118027,5.506664,-0.034773,-0.111515,0.135496
26.340,675160,9.624691,4.141969,5.597643,-0.071012,-0.104453,0.175199
26.360,675180,10.022128,4.247314,5.607220,-0.053559,-0.092196,0.180795
26.380,675200,9.150639,4.156334,5.449203,-0.059155,-0.055691,0.173467
26.400,675220,9.208099,4.170700,5.214571,-0.020651,-0.060354,0.161876
26.420,675240,8.944737,4.127604,5.051765,0.026513,-0.061420,0.128568
26.440,675260,8.748413,4.161122,4.994305,0.079539,-0.069680,0.098991
26.460,675280,8.226477,4.050989,4.999093,0.117776,-0.025714,0.060087
26.480,675300,7.666234,3.869030,4.850653,0.133364,0.010525,0.030110
26.500,675320,7.738060,3.778050,4.630386,0.136162,0.027179,0.014389
26.520,675340,7.896077,3.667917,4.438850,0.135230,0.043300,0.034240
26.540,675360,7.953538,3.778050,4.539406,0.116977,0.042634,0.057822
26.560,675380,8.001422,3.888184,4.620809,0.111781,0.081538,0.051560
26.580,675400,8.001422,4.036624,4.764462,0.100590,0.126703,0.015588
26.600,675420,8.418014,4.137180,4.979939,0.097392,0.183859,-0.031842
26.620,675440,8.499416,4.261679,5.157111,0.077541,0.280452,-0.075542
26.640,675460,8.149862,4.347870,5.310339,0.052227,0.391833,-0.130300
26.660,675480,8.111555,4.386178,5.358223,0.045965,0.471505,-0.198781
26.680,675500,8.259995,4.271256,5.291186,0.047564,0.519602,-0.244479
26.700,675520,8.480263,4.141969,5.123591,0.039037,0.515871,-0.241282
26.720,675540,8.604761,3.912126,4.999093,0.019185,0.459914,-0.175865
26.740,675560,8.461109,3.797204,4.927267,-0.009726,0.377844,-0.091663
26.760,675580,8.236053,3.754108,4.951209,-0.033441,0.304567,-0.029977
26.780,675600,8.039729,3.720589,5.046977,-0.054625,0.259934,-0.011991
26.800,675620,8.130709,3.758897,5.133168,-0.077674,0.234087,-0.035972
26.820,675640,8.063671,3.763685,5.109226,-0.102721,0.225694,-0.074077
26.840,675660,8.010999,3.792415,5.133168,-0.128035,0.187989,-0.123905
26.860,675680,8.341399,3.830723,5.128380,-0.150152,0.154548,-0.167338
26.880,675700,8.441956,3.931279,5.228937,-0.176265,0.136029,-0.191054
26.900,675720,8.226477,3.964798,5.257667,-0.212371,0.124571,-0.208374
26.920,675740,8.078036,3.998317,5.209783,-0.233288,0.122706,-0.221830
26.940,675760,7.982268,4.146757,5.171476,-0.242214,0.122173,-0.225694
26.960,675780,7.814674,4.276044,5.248090,-0.237018,0.126303,-0.242881
26.980,675800,7.848193,4.295198,5.334281,-0.217034,0.127902,-0.254605
27.000,675820,7.790732,4.237737,5.319916,-0.212770,0.141358,-0.225028
27.020,675840,7.881712,4.180276,5.305551,-0.212504,0.125237,-0.173467
27.040,675860,8.092402,4.209007,5.315128,-0.207041,0.087533,-0.123505
27.060,675880,8.044518,4.261679,5.477933,-0.205043,0.042900,-0.078207
27.080,675900,8.169016,4.314352,5.655105,-0.199714,-0.009326,-0.054225
27.100,675920,8.389283,4.429273,5.904101,-0.209839,-0.055691,-0.035972
27.120,675940,9.844957,5.046977,6.426037,-0.207841,-0.159611,-0.055025
27.140,675960,9.734824,4.817134,6.181829,-0.197848,-0.104054,-0.031576
27.160,675980,9.093178,4.898537,6.464345,-0.214769,-0.186257,-0.022516
27.180,676000,8.848969,4.764462,6.320693,-0.205842,-0.166539,-0.027979
27.200,676020,8.547300,4.707001,6.382942,-0.212504,-0.168138,-0.038770
27.220,676040,8.025364,4.434062,6.205771,-0.201979,-0.133231,-0.024248
27.240,676060,7.532158,4.118027,6.119579,-0.194917,-0.105253,0.009459
27.260,676080,7.675811,3.945644,6.019023,-0.187989,-0.111381,0.043300
27.280,676100,7.560889,3.849876,5.793968,-0.186524,-0.108717,0.062885
27.300,676120,7.168240,3.801992,5.693412,-0.183459,-0.135363,0.045832
27.320,676140,6.861782,3.653552,5.559336,-0.175998,-0.171868,-0.013057
27.340,676160,6.847417,3.399766,5.612009,-0.173867,-0.218366,-0.079806
27.360,676180,7.326257,3.313575,5.798757,-0.202378,-0.249542,-0.116311
27.380,676200,7.469909,3.418920,5.947197,-0.256870,-0.202511,-0.133364
27.400,676220,7.134721,3.562572,6.220136,-0.308297,-0.139093,-0.178130
27.420,676240,7.177817,3.816358,6.440403,-0.342937,-0.043433,-0.251141
27.440,676260,7.149086,4.050989,6.756437,-0.364920,0.090331,-0.323619
27.460,676280,7.105990,4.414908,7.149086,-0.384239,0.234620,-0.404090
27.480,676300,7.407660,4.596867,7.307104,-0.391167,0.348000,-0.494821
27.500,676320,8.078036,4.505888,6.952762,-0.356260,0.369450,-0.525198
27.520,676340,8.461109,4.424485,6.560112,-0.321887,0.271392,-0.444992
27.540,676360,8.489840,4.424485,6.335058,-0.264997,0.106052,-0.326417
27.560,676380,8.245630,4.347870,6.220136,-0.197049,-0.035173,-0.218366
27.580,676400,8.006210,4.261679,6.138733,-0.134031,-0.156014,-0.145888
27.600,676420,7.733272,4.074931,5.980716,-0.072211,-0.219432,-0.101655
27.620,676440,7.335834,3.964798,5.937620,-0.050228,-0.219165,-0.076208
27.640,676460,7.216124,4.022259,5.956774,-0.041835,-0.192519,-0.080605
27.660,676480,7.311892,4.089296,5.999869,-0.040636,-0.139227,-0.110049
27.680,676500,7.398083,4.036624,5.956774,-0.050361,-0.075409,-0.120574
27.700,676520,7.541735,3.969586,5.937620,-0.063285,-0.020118,-0.095527
27.720,676540,7.599196,4.003105,5.846641,-0.068881,0.016920,-0.051294
27.740,676560,7.608773,4.036624,5.817910,-0.052760,0.030910,-0.003064
27.760,676580,7.642292,4.022259,5.832275,-0.022250,0.034107,0.045832
27.780,676600,7.666234,3.955221,5.798757,0.011458,0.022916,0.087266
27.800,676620,7.757214,3.907337,5.899313,0.033308,0.009726,0.130167
27.820,676640,7.809886,3.873818,5.894525,0.045165,-0.007594,0.158279
27.840,676660,7.771579,3.730166,5.765238,0.047963,-0.037172,0.175066
27.860,676680,7.795521,3.701436,5.793968,0.037838,-0.074476,0.197049
27.880,676700,7.876924,3.734955,5.837064,0.025980,-0.091130,0.216900
27.900,676720,7.752425,3.787627,5.865794,0.011591,-0.089265,0.222230
27.920,676740,7.795521,3.969586,5.999869,0.002665,-0.097925,0.225028
27.940,676760,9.284714,4.625597,6.670246,0.016387,-0.145489,0.193452
27.960,676780,9.452309,4.319140,6.215348,0.035440,-0.005196,0.216900
27.980,676800,8.623915,4.697424,6.445191,0.019452,-0.028778,0.220098
28.000,676820,9.102755,4.745308,6.426037,0.101655,0.015721,0.155881
28.020,676840,8.638280,4.663905,6.291962,0.112181,0.054758,0.089531
28.040,676860,8.322245,4.525041,6.081272,0.123505,0.073544,0.060887
28.060,676880,8.044518,4.438850,5.760449,0.123772,0.064884,0.030110
28.080,676900,7.939173,4.285621,5.635951,0.124704,0.029311,0.015855
28.100,676920,7.647080,4.031836,5.544971,0.103254,0.013456,0.042501
28.120,676940,7.426814,3.931279,5.477933,0.055824,-0.004397,0.091397
28.140,676960,7.316680,3.945644,5.262455,0.003864,-0.006662,0.144956
28.160,676980,6.943185,3.979163,5.042189,-0.034907,-0.006262,0.192652
28.180,677000,7.105990,4.237737,4.999093,-0.027179,-0.036639,0.211571
28.200,677020,7.642292,4.481946,5.176264,0.012124,-0.043833,0.181461
28.220,677040,7.508216,4.510676,5.262455,0.064351,0.003864,0.131366
28.240,677060,7.441179,4.630386,5.573701,0.083802,0.064750,0.074210
28.260,677080,7.805098,4.917690,5.832275,0.096326,0.158945,0.000533
28.280,677100,7.972692,5.267244,6.009446,0.108051,0.259268,-0.097392
28.300,677120,7.934384,5.339070,6.181829,0.132432,0.360657,-0.190654
28.320,677140,7.905654,5.066131,6.148310,0.130300,0.446858,-0.229691
28.340,677160,8.154651,4.625597,5.870583,0.099657,0.450322,-0.200113
28.360,677180,8.374918,4.367024,5.655105,0.052360,0.386770,-0.097525
28.380,677200,8.149862,4.237737,5.554548,0.006795,0.302168,0.013057
28.400,677220,7.896077,4.122815,5.482722,-0.020917,0.214902,0.095127
28.420,677240,7.742848,4.012682,5.367800,-0.041302,0.150685,0.156547
28.440,677260,7.752425,3.969586,5.353435,-0.052626,0.106851,0.179063
28.460,677280,7.709330,4.046201,5.396531,-0.055291,0.078740,0.156014
28.480,677300,7.661446,4.127604,5.420473,-0.042900,0.064884,0.102055
28.500,677320,7.723695,4.194642,5.434838,-0.030243,0.061819,0.041701
28.520,677340,7.819463,4.199430,5.482722,-0.018919,0.061286,-0.019985
28.540,677360,7.953538,4.189853,5.511452,-0.021983,0.049429,-0.055158
28.560,677380,7.953538,4.175488,5.468357,-0.037571,0.037704,-0.057689
28.580,677400,7.876924,4.151546,5.449203,-0.065550,0.020651,-0.058622
28.600,677420,7.848193,4.170700,5.415684,-0.088466,-0.007061,-0.065150
28.620,677440,7.920019,4.204218,5.363012,-0.105253,-0.039836,-0.069413
28.640,677460,7.838616,4.151546,5.324705,-0.123372,-0.065683,-0.049828
28.660,677480,7.805098,4.127604,5.310339,-0.143357,-0.093129,-0.017187
28.680,677500,7.967903,4.146757,5.171476,-0.158279,-0.120841,0.022649
28.700,677520,7.891289,4.170700,5.228937,-0.163874,-0.145489,0.054092
28.720,677540,7.891289,4.218584,5.272032,-0.166939,-0.181328,0.064084
28.740,677560,8.298303,4.271256,5.358223,-0.164541,-0.203178,0.059821
28.760,677580,8.159439,4.218584,5.377377,-0.175332,-0.197449,0.067015
28.780,677600,7.939173,4.338294,5.674258,-0.200380,-0.216900,0.051161
28.800,677620,9.725247,4.908113,6.014235,-0.187856,-0.264331,-0.000533
28.820,677640,9.212888,4.702212,5.784391,-0.199314,-0.197582,0.009726
28.840,677660,9.428367,4.979939,6.177041,-0.200913,-0.277387,-0.010259
28.860,677680,9.184157,4.707001,6.066907,-0.197848,-0.227026,0.001332
28.880,677700,9.289502,4.759673,6.129156,-0.209306,-0.220498,0.036106
28.900,677720,8.489840,4.367024,5.865794,-0.205976,-0.186257,0.071145
28.920,677740,7.891289,4.003105,5.616797,-0.189721,-0.199580,0.121374
28.940,677760,7.800309,3.902549,5.506664,-0.180528,-0.200646,0.159211
28.960,677780,7.268796,3.701436,5.391742,-0.167072,-0.172534,0.166539
28.980,677800,6.698977,3.572149,5.257667,-0.164274,-0.188256,0.130034
29.000,677820,7.374141,3.452439,5.209783,-0.142158,-0.240216,0.063018
29.020,677840,7.876924,3.323152,5.243302,-0.145622,-0.257003,0.028245
29.040,677860,7.757214,3.385401,5.497087,-0.171069,-0.246345,0.010392
29.060,677880,7.402872,3.533842,5.760449,-0.205709,-0.183459,-0.048096
29.080,677900,7.441179,3.744531,6.014235,-0.235020,-0.089132,-0.143490
29.100,677920,7.714118,3.955221,6.282385,-0.258735,0.039570,-0.236219
29.120,677940,7.910442,4.228160,6.478710,-0.278453,0.182127,-0.315625
29.140,677960,7.824251,4.343082,6.612785,-0.292043,0.306032,-0.388636
29.160,677980,8.049306,4.343082,6.440403,-0.289511,0.349732,-0.433268
29.180,678000,8.667010,4.213795,6.110003,-0.260067,0.285515,-0.390634
29.200,678020,8.858546,4.247314,5.870583,-0.220764,0.151217,-0.283783
29.220,678040,8.662222,4.185065,5.736507,-0.162009,0.004930,-0.191720
29.240,678060,8.231265,4.031836,5.640739,-0.109383,-0.107518,-0.124438
29.260,678080,7.886500,3.878607,5.564125,-0.067015,-0.166939,-0.088732
29.280,678100,7.699753,3.811569,5.516241,-0.044766,-0.175599,-0.072345
29.300,678120,7.661446,3.782839,5.578490,-0.042634,-0.155747,-0.072345
29.320,678140,7.723695,3.749320,5.544971,-0.054492,-0.119109,-0.067815
29.340,678160,7.833828,3.768473,5.477933,-0.070613,-0.078740,-0.053959
29.360,678180,7.972692,3.778050,5.425261,-0.074743,-0.047164,-0.023848
29.380,678200,7.891289,3.773262,5.482722,-0.076208,-0.021450,0.010925
29.400,678220,7.915231,3.667917,5.487510,-0.073144,-0.009859,0.033441
29.420,678240,8.034941,3.639187,5.401319,-0.070080,-0.005196,0.069946
29.440,678260,7.948750,3.610456,5.324705,-0.051560,-0.017054,0.094861
29.460,678280,7.915231,3.658340,5.458780,-0.024115,-0.041435,0.095394
29.480,678300,7.982268,3.591303,5.516241,-0.011058,-0.037172,0.097792
29.500,678320,7.977480,3.533842,5.501875,-0.013456,-0.045965,0.115245
29.520,678340,8.216900,3.543418,5.463568,-0.027179,-0.088865,0.123372
29.540,678360,8.274361,3.576937,5.382165,-0.032508,-0.122173,0.131100
29.560,678380,8.212111,3.620033,5.453991,-0.041835,-0.145622,0.147087
29.580,678400,8.159439,3.667917,5.420473,-0.041035,-0.146821,0.164141
29.600,678420,8.801085,4.228160,5.884948,-0.041168,-0.187856,0.165740
29.620,678440,10.409989,4.180276,5.774815,0.013723,-0.152017,0.160011
29.640,678460,9.078813,4.113238,5.655105,-0.025714,-0.103654,0.225960
29.660,678480,9.777920,4.496311,5.995081,0.027046,-0.125371,0.211038
29.680,678500,8.786720,4.529830,5.937620,0.023049,-0.020784,0.159345
29.700,678520,8.963891,4.596867,5.947197,0.062752,-0.025047,0.090730
29.720,678540,8.863335,4.357447,5.516241,0.085534,-0.010525,0.044632
29.740,678560,8.710106,4.218584,5.401319,0.097659,-0.065816,0.030776
29.760,678580,8.259995,4.041412,5.209783,0.093129,-0.091397,0.039170
29.780,678600,7.723695,3.873818,5.013458,0.067948,-0.118576,0.072744
29.800,678620,7.536947,3.591303,4.812346,0.028911,-0.125371,0.135230
29.820,678640,7.422025,3.519476,4.477157,-0.019185,-0.115645,0.220631
29.840,678660,7.546524,3.859453,4.496311,-0.023982,-0.111115,0.258335
29.860,678680,7.733272,4.036624,4.630386,0.015855,-0.070746,0.227559
29.880,678700,7.977480,4.209007,4.774038,0.063152,-0.015988,0.177730
29.900,678720,8.374918,4.486734,5.094861,0.104320,0.061153,0.116711
29.920,678740,8.403648,4.759673,5.406107,0.132698,0.180795,0.023049
29.940,678760,8.216900,4.932055,5.683835,0.152550,0.315092,-0.099524
29.960,678780,8.006210,4.979939,5.851429,0.157613,0.453119,-0.213037
29.980,678800,8.188169,4.563348,5.774815,0.156280,0.536655,-0.284715
30.000,678820,8.667010,4.027047,5.334281,0.120441,0.523599,-0.238484
30.020,678840,8.863335,3.763685,5.070919,0.069014,0.430070,-0.077274
30.040,678860,8.518570,3.768473,5.013458,0.027312,0.312427,0.069014
30.060,678880,8.173804,3.720589,5.075707,0.014123,0.196383,0.136562
30.080,678900,8.312668,3.725378,5.099649,-0.002265,0.110982,0.169603
30.100,678920,8.125920,3.730166,5.027823,-0.017587,0.088332,0.189055
30.120,678940,8.082825,3.739743,5.075707,-0.015721,0.055025,0.153349
30.140,678960,8.054094,3.821146,5.070919,-0.017853,0.046364,0.080472
30.160,678980,8.078036,3.854665,5.099649,-0.012923,0.044366,0.002398
30.180,679000,8.221688,3.864242,5.104438,-0.019851,0.047297,-0.067282
30.200,679020,8.408437,3.801992,5.037400,-0.044366,0.045565,-0.116444
30.220,679040,8.250419,3.811569,4.965574,-0.075542,0.041035,-0.143757
30.240,679060,8.101978,3.883395,4.994305,-0.103254,0.034240,-0.168538
30.260,679080,7.972692,3.902549,5.013458,-0.136429,0.040369,-0.177198
30.280,679100,8.010999,3.979163,5.032612,-0.169337,0.042634,-0.156813
30.300,679120,8.192958,4.084508,4.960786,-0.184658,0.026247,-0.122040
30.320,679140,8.317456,4.127604,4.975151,-0.179596,-0.006928,-0.074343
30.340,679160,8.413225,4.180276,4.951209,-0.157213,-0.038770,-0.010126
30.360,679180,8.346188,4.213795,4.999093,-0.131899,-0.067415,0.034374
30.380,679200,8.604761,4.228160,5.099649,-0.101389,-0.102855,0.045165
30.400,679220,8.681376,4.127604,5.161899,-0.092329,-0.120841,0.047297
30.420,679240,8.599973,4.213795,5.482722,-0.120708,-0.146155,0.033175
30.440,679260,10.266336,4.616021,5.770026,-0.138028,-0.187190,-0.014522
30.460,679280,9.284714,4.247314,5.583278,-0.194518,-0.113513,-0.008793
30.480,679300,9.538500,4.515464,5.851429,-0.240749,-0.148686,-0.024648
30.500,679320,9.093178,4.410120,5.669470,-0.266862,-0.099524,-0.018253
30.520,679340,8.968679,4.558560,5.750873,-0.269394,-0.109383,-0.021184
30.540,679360,8.394072,4.333505,5.588067,-0.247544,-0.074077,-0.013590
30.560,679380,7.833828,4.094085,5.506664,-0.231289,-0.060221,0.007328
30.580,679400,7.958326,4.070143,5.535394,-0.206375,-0.074476,0.007994
30.600,679420,7.661446,3.950433,5.343858,-0.193452,-0.073144,0.002265
30.620,679440,7.426814,3.883395,5.276821,-0.183859,-0.130833,-0.037438
30.640,679460,7.417237,3.509900,5.114015,-0.169204,-0.170936,-0.069946
30.660,679480,7.417237,3.294421,4.994305,-0.191986,-0.240083,-0.070479
30.680,679500,8.058883,3.303998,5.056554,-0.214103,-0.328415,-0.067815
30.700,679520,8.312668,3.371036,5.219360,-0.249675,-0.348266,-0.057556
30.720,679540,8.049306,3.327940,5.449203,-0.288312,-0.300703,-0.053159
30.740,679560,7.987057,3.615245,5.583278,-0.331613,-0.237818,-0.091397
30.760,679580,8.370130,4.003105,5.837064,-0.352263,-0.138028,-0.172401
30.780,679600,8.370130,4.232949,6.138733,-0.365320,0.012524,-0.274590
30.800,679620,8.020576,4.323928,6.397307,-0.374513,0.186524,-0.384505
30.820,679640,7.714118,4.371812,6.464345,-0.391433,0.350398,-0.486694
30.840,679660,8.125920,4.347870,6.181829,-0.373980,0.402358,-0.554908
30.860,679680,8.762778,4.209007,5.616797,-0.330280,0.314559,-0.513074
30.880,679700,8.901642,4.218584,5.444415,-0.278986,0.147620,-0.395430
30.900,679720,8.647857,4.161122,5.305551,-0.207175,-0.012790,-0.282983
30.920,679740,8.212111,3.988740,5.281609,-0.146821,-0.128968,-0.192786
30.940,679760,7.795521,3.849876,5.219360,-0.104986,-0.180129,-0.123905
30.960,679780,7.589619,3.821146,5.152322,-0.088599,-0.179729,-0.083536
30.980,679800,7.532158,3.873818,5.243302,-0.081138,-0.140292,-0.082737
31.000,679820,7.489063,3.825934,5.396531,-0.085534,-0.064617,-0.096859
31.020,679840,7.532158,3.835511,5.492299,-0.102455,0.027845,-0.094194
31.040,679860,7.939173,3.897760,5.559336,-0.117510,0.099923,-0.077674
31.060,679880,8.259995,3.931279,5.439626,-0.121107,0.141492,-0.045299
31.080,679900,8.408437,3.888184,5.391742,-0.104320,0.133364,0.003064
31.100,679920,8.532935,3.806781,5.358223,-0.078207,0.099524,0.054625
31.120,679940,8.389283,3.687071,5.396531,-0.055691,0.059554,0.091663
31.140,679960,8.293514,3.620033,5.425261,-0.040103,0.014522,0.114979
31.160,679980,8.389283,3.533842,5.339070,-0.031043,-0.031842,0.127103
31.180,680000,8.346188,3.476381,5.204995,-0.022250,-0.072211,0.142957
31.200,680020,8.240842,3.543418,5.238513,-0.008260,-0.110315,0.149752
31.220,680040,8.207323,3.572149,5.286397,0.010658,-0.120708,0.133498
31.240,680060,8.360553,3.591303,5.295974,0.024914,-0.122706,0.120441
31.260,680080,8.542512,3.648763,5.224148,0.031576,-0.140825,0.143357
31.280,680100,8.556877,3.696647,5.305551,0.042234,-0.159744,0.153349
31.300,680120,9.366117,4.122815,5.683835,0.042368,-0.208640,0.146155
31.320,680140,10.041282,4.007894,5.425261,0.073144,-0.145888,0.169204
31.340,680160,8.810662,4.122815,5.631162,0.024781,-0.124838,0.202112
31.360,680180,9.476251,4.285621,5.645528,0.069147,-0.109383,0.159078
31.380,680200,8.820239,4.141969,5.439626,0.055557,-0.053159,0.124438
31.400,680220,8.834604,4.180276,5.492299,0.073544,-0.045965,0.090198
31.420,680240,8.485051,4.137180,5.396531,0.072611,-0.003730,0.045832
31.440,680260,8.279149,4.108450,5.334281,0.074476,0.017453,0.005329
31.460,680280,7.939173,4.041412,5.238513,0.069813,0.053692,-0.027312
31.480,680300,7.536947,4.017470,5.181053,0.044499,0.078873,-0.030243
31.500,680320,7.412448,3.926491,4.865018,0.021051,0.091930,0.001199
31.520,680340,7.445967,4.003105,4.596867,0.008527,0.071145,0.053825
31.540,680360,7.704541,4.309563,4.721366,0.037038,0.042368,0.084469
31.560,680380,7.996634,4.458004,4.917690,0.087000,0.059821,0.083003
31.580,680400,7.924808,4.620809,5.066131,0.109516,0.090064,0.051161
31.600,680420,8.231265,4.850653,5.276821,0.131632,0.130700,-0.020784
31.620,680440,8.403648,5.018247,5.477933,0.139626,0.205576,-0.100856
31.640,680460,8.063671,5.080496,5.698200,0.124704,0.305366,-0.166939
31.660,680480,7.876924,4.984728,5.779603,0.095926,0.398095,-0.217034
31.680,680500,7.915231,4.668694,5.669470,0.049296,0.444326,-0.228092
31.700,680520,8.370130,4.419696,5.334281,0.003597,0.412884,-0.156547
31.720,680540,8.298303,4.209007,5.051765,-0.030243,0.339207,-0.025047
31.740,680560,8.140285,4.094085,5.037400,-0.039836,0.237152,0.090198
31.760,680580,8.159439,4.012682,5.023035,-0.047164,0.152683,0.159211
31.780,680600,8.054094,3.979163,5.023035,-0.051560,0.101522,0.188389
31.800,680620,7.824251,3.988740,5.085284,-0.050361,0.071012,0.164940
31.820,680640,7.843405,3.983952,5.161899,-0.050495,0.047564,0.101522
31.840,680660,8.240842,3.993528,5.051765,-0.050361,0.033708,0.041035
31.860,680680,8.231265,4.027047,5.114015,-0.064217,0.020384,-0.011858
31.880,680700,8.346188,3.998317,5.099649,-0.073277,0.000000,-0.068747
31.900,680720,8.370130,4.007894,5.080496,-0.104187,-0.008660,-0.099124
31.920,680740,8.298303,4.079720,5.008670,-0.132565,-0.016654,-0.110449
31.940,680760,8.188169,4.113238,5.008670,-0.159345,-0.033175,-0.121640
31.960,680780,8.015787,4.118027,4.999093,-0.180528,-0.032109,-0.112847
31.980,680800,7.958326,4.151546,5.013458,-0.199714,-0.035306,-0.091530
32.000,680820,8.020576,4.175488,4.932055,-0.212770,-0.035040,-0.059688
32.020,680840,8.030152,4.189853,4.927267,-0.207974,-0.041168,-0.010658
32.040,680860,8.111555,4.204218,4.941632,-0.189988,-0.061286,0.035706
32.060,680880,8.231265,4.237737,4.984728,-0.168005,-0.079539,0.063285
32.080,680900,8.432379,4.252102,5.075707,-0.147221,-0.121374,0.097525
32.100,680920,8.418014,4.261679,5.133168,-0.138694,-0.145355,0.110715
32.120,680940,8.226477,4.280833,5.300763,-0.138694,-0.177730,0.112181
32.140,680960,9.998186,4.898537,5.789180,-0.127902,-0.269793,0.052893
32.160,680980,9.490616,4.520253,5.549759,-0.137361,-0.171602,0.046631
32.180,681000,9.557653,4.778827,5.918467,-0.169870,-0.237285,0.018519
32.200,681020,9.193734,4.453215,5.540183,-0.169603,-0.169470,-0.015188
32.220,681040,8.916007,4.414908,5.688623,-0.195983,-0.172668,-0.049296
32.240,681060,8.293514,4.094085,5.659893,-0.215435,-0.108983,-0.060221
32.260,681080,7.939173,3.907337,5.544971,-0.249009,-0.073144,-0.025181
32.280,681100,8.188169,3.926491,5.382165,-0.244746,-0.079806,0.013856
32.300,681120,7.991845,3.821146,5.152322,-0.229824,-0.097126,0.041035
32.320,681140,7.766790,3.801992,5.094861,-0.204643,-0.163075,0.038770
32.340,681160,7.809886,3.519476,5.032612,-0.180928,-0.233954,0.013190
32.360,681180,8.140285,3.308787,5.114015,-0.200646,-0.294841,0.005462
32.380,681200,8.422802,3.380613,5.157111,-0.242747,-0.302035,0.003997
32.400,681220,7.958326,3.466804,5.310339,-0.285648,-0.268194,-0.029044
32.420,681240,7.690176,3.677494,5.602432,-0.324018,-0.209706,-0.108717
32.440,681260,8.015787,3.754108,5.693412,-0.353862,-0.099790,-0.187323
32.460,681280,8.111555,3.945644,5.822699,-0.391300,0.026247,-0.244080
32.480,681300,8.149862,4.252102,6.066907,-0.395830,0.140559,-0.315891
32.500,681320,7.876924,4.405331,6.095637,-0.380642,0.265930,-0.384239
32.520,681340,7.714118,4.429273,6.038177,-0.344270,0.337608,-0.426873
32.540,681360,8.298303,4.299986,5.736507,-0.277920,0.300037,-0.434867
32.560,681380,8.786720,4.213795,5.482722,-0.221697,0.186790,-0.370383
32.580,681400,8.599973,4.084508,5.535394,-0.171202,0.057689,-0.267262
32.600,681420,8.274361,3.916914,5.521029,-0.132432,-0.037305,-0.172268
32.620,681440,8.044518,3.907337,5.511452,-0.111381,-0.084735,-0.101522
32.640,681460,7.857770,3.845088,5.482722,-0.093395,-0.087400,-0.055158
32.660,681480,7.728483,3.840300,5.506664,-0.083802,-0.066216,-0.035306
32.680,681500,7.762002,3.883395,5.588067,-0.082337,-0.028511,-0.032775
32.700,681520,7.967903,3.892972,5.535394,-0.076608,0.012923,-0.021850
32.720,681540,8.020576,3.854665,5.444415,-0.063285,0.045832,0.004263
32.740,681560,8.106767,3.811569,5.453991,-0.034107,0.048496,0.030776
32.760,681580,8.307879,3.687071,5.386954,-0.010126,0.037305,0.065283
32.780,681600,8.465898,3.600879,5.339070,0.002132,0.012657,0.106185
32.800,681620,8.394072,3.576937,5.291186,0.010525,-0.024248,0.130433
32.820,681640,8.451532,3.557784,5.252879,0.016254,-0.056890,0.131366
32.840,681660,8.307879,3.514688,5.228937,0.017453,-0.064750,0.126436
32.860,681680,8.216900,3.490746,5.248090,0.014123,-0.070879,0.116444
32.880,681700,8.298303,3.519476,5.224148,0.005063,-0.068747,0.101655
32.900,681720,8.451532,3.600879,5.166687,0.003730,-0.072877,0.093928
32.920,681740,8.528147,3.596091,5.142745,0.008394,-0.077141,0.100989
32.940,681760,8.532935,3.572149,5.075707,0.016121,-0.083403,0.119109
32.960,681780,8.374918,3.562572,5.061342,0.017054,-0.090997,0.139893
32.980,681800,8.403648,3.548207,5.075707,0.019585,-0.108051,0.154815
33.000,681820,8.690952,3.643975,5.195418,0.015188,-0.130567,0.176132
33.020,681840,10.084377,4.098873,5.616797,0.016787,-0.181061,0.177464
33.040,681860,9.835381,3.955221,5.291186,0.027979,-0.117110,0.208374
33.060,681880,9.758766,4.237737,5.626374,0.027312,-0.169603,0.192919
33.080,681900,10.232818,4.194642,5.406107,0.053692,-0.132832,0.166406
33.100,681920,9.581595,4.276044,5.396531,0.040369,-0.088066,0.138161
33.120,681940,8.968679,4.252102,5.262455,0.067282,-0.039037,0.062485
33.140,681960,8.250419,4.089296,5.037400,0.082737,0.019851,-0.023182
33.160,681980,7.594408,3.830723,4.908113,0.072744,0.079273,-0.086067
33.180,682000,6.746861,3.457227,4.611232,0.045832,0.132299,-0.104054
33.200,682020,6.689400,3.327940,4.410120,0.005196,0.103920,-0.072877
33.220,682040,7.651869,3.543418,4.290410,-0.025980,0.039303,0.012923
33.240,682060,8.465898,4.118027,4.644751,-0.025047,0.011591,0.094328
33.260,682080,7.958326,4.290410,4.855441,0.002265,0.068481,0.130034
33.280,682100,7.900866,4.563348,5.137957,0.046364,0.099390,0.088066
33.300,682120,8.418014,4.836287,5.262455,0.083669,0.159877,0.000400
33.320,682140,8.796297,5.224148,5.573701,0.115245,0.237818,-0.119375
33.340,682160,8.322245,5.176264,5.765238,0.140559,0.354928,-0.240216
33.360,682180,7.575254,5.042189,5.918467,0.126170,0.464311,-0.325217
33.380,682200,7.833828,4.558560,5.908890,0.095260,0.512008,-0.362123
33.400,682220,8.279149,4.132392,5.358223,0.025447,0.495354,-0.248743
33.420,682240,8.236053,4.098873,5.281609,-0.037971,0.387170,-0.074743
33.440,682260,8.068460,4.065354,5.214571,-0.052626,0.280718,0.048096
33.460,682280,8.039729,3.988740,5.133168,-0.052227,0.193052,0.135363
33.480,682300,7.977480,3.907337,5.176264,-0.051028,0.141891,0.188389
33.500,682320,7.943961,3.916914,5.190629,-0.050894,0.127369,0.185458
33.520,682340,8.082825,3.993528,5.181053,-0.047297,0.096060,0.156280
33.540,682360,8.374918,4.065354,5.142745,-0.038904,0.068747,0.097259
33.560,682380,8.298303,4.012682,5.094861,-0.035173,0.055158,0.052626
33.580,682400,8.226477,4.089296,5.209783,-0.041035,0.042767,0.005329
33.600,682420,8.384495,4.103662,5.051765,-0.037838,0.029444,-0.026646
33.620,682440,8.317456,4.165911,4.994305,-0.042234,0.003331,-0.039969
33.640,682460,8.202535,4.194642,4.965574,-0.039037,-0.019185,-0.049562
33.660,682480,8.164227,4.084508,5.003881,-0.045698,-0.034907,-0.044366
33.680,682500,8.221688,3.936068,4.941632,-0.070613,-0.051427,-0.014256
33.700,682520,8.130709,3.931279,4.932055,-0.111914,-0.072877,0.025314
33.720,682540,8.327033,4.031836,4.917690,-0.133764,-0.103787,0.051161
33.740,682560,8.437167,4.098873,4.841076,-0.147487,-0.119109,0.076475
33.760,682580,8.432379,4.118027,4.850653,-0.148553,-0.148420,0.077274
33.780,682600,8.580819,4.007894,4.807557,-0.144023,-0.182660,0.066349
33.800,682620,8.686164,3.988740,4.783615,-0.156813,-0.205176,0.067948
33.820,682640,8.561666,4.017470,4.817134,-0.171469,-0.208240,0.065017
33.840,682660,9.409213,4.616021,5.305551,-0.193851,-0.261533,0.016121
33.860,682680,9.763555,4.410120,5.123591,-0.182260,-0.170003,-0.014789
33.880,682700,9.284714,4.525041,5.439626,-0.237685,-0.162542,-0.017720
33.900,682720,9.490616,4.419696,5.204995,-0.229957,-0.075542,-0.030243
33.920,682740,8.532935,4.328717,5.228937,-0.247277,-0.034107,-0.045299
33.940,682760,8.173804,4.151546,5.209783,-0.227026,0.007328,-0.082603
33.960,682780,7.747637,3.921702,5.181053,-0.221963,0.059554,-0.098458
33.980,682800,7.886500,3.902549,5.295974,-0.207974,0.064884,-0.095660
34.000,682820,8.078036,3.955221,5.324705,-0.187590,0.058622,-0.100323
34.020,682840,7.623138,3.806781,5.372589,-0.168937,0.033574,-0.104453
34.040,682860,7.642292,3.672705,5.372589,-0.168271,-0.039037,-0.123106
34.060,682880,8.010999,3.462016,5.406107,-0.176531,-0.114446,-0.131233
34.080,682900,8.250419,3.505111,5.592855,-0.219565,-0.163208,-0.116044
34.100,682920,8.145074,3.600879,5.736507,-0.257136,-0.148953,-0.106185
34.120,682940,7.771579,3.744531,5.899313,-0.291377,-0.105919,-0.117377
34.140,682960,8.111555,4.022259,6.110003,-0.306032,-0.042634,-0.164807
34.160,682980,8.355764,4.204218,6.181829,-0.306432,0.060620,-0.209839
34.180,683000,8.116343,4.338294,6.311116,-0.302968,0.158412,-0.257802
34.200,683020,7.920019,4.323928,6.244078,-0.283916,0.236619,-0.315891
34.220,683040,7.920019,4.252102,6.014235,-0.252073,0.259135,-0.345202
34.240,683060,8.394072,4.050989,5.674258,-0.201579,0.193718,-0.342005
34.260,683080,8.561666,3.912126,5.463568,-0.162142,0.088599,-0.285648
34.280,683100,8.197746,3.792415,5.453991,-0.124438,0.006129,-0.232622
34.300,683120,7.963115,3.816358,5.382165,-0.096992,-0.068081,-0.172801
34.320,683140,7.742848,3.878607,5.420473,-0.084202,-0.078074,-0.146021
34.340,683160,7.503428,3.912126,5.525817,-0.081404,-0.061420,-0.141625
34.360,683180,7.685388,3.945644,5.506664,-0.085668,-0.019319,-0.150152
34.380,683200,7.819463,3.988740,5.540183,-0.101123,0.031176,-0.153616
34.400,683220,7.996634,3.974375,5.559336,-0.105652,0.058888,-0.146288
34.420,683240,8.082825,3.931279,5.559336,-0.104986,0.085401,-0.114845
34.440,683260,8.140285,3.988740,5.521029,-0.095394,0.094994,-0.072211
34.460,683280,8.164227,3.983952,5.501875,-0.071945,0.088199,-0.039836
34.480,683300,8.183381,3.907337,5.468357,-0.049828,0.066616,-0.005862
